condition_file,thisN,thisTrialN,thisRepN,rule,card,corrAns,response.x,response.y,response.leftButton,response.midButton,response.rightButton,response.clicked_name,blocks.thisRepN,blocks.thisTrialN,blocks.thisN,blocks.thisIndex,trials.thisRepN,trials.thisTrialN,trials.thisN,trials.thisIndex,thisRow.t,notes,INIT_LSL.started,text_init.started,text_init.stopped,INIT_LSL.stopped,Instructions.started,instructions.started,key_resp.started,Instructions.stopped,key_resp.keys,key_resp.rt,key_resp.duration,Example.started,example_text.started,example_image.started,example_text_2.started,key_resp_2.started,Example.stopped,key_resp_2.keys,key_resp_2.rt,key_resp_2.duration,Trials.started,fixation.started,one_red_dot.started,two_yellow_triangles.started,three_green_crosses.started,four_blue_stars.started,trial_card.started,fixation.stopped,response.started,correct,Trials.stopped,trials.response.x,trials.response.y,trials.response.leftButton,trials.response.midButton,trials.response.rightButton,trials.response.clicked_name,Feedback.started,feedback_text.started,feedback_text.stopped,Feedback.stopped,End.started,thank_you.started,End.stopped,participant,session,date,expName,expVersion,psychopyVersion,frameRate,expStart,
,,,,,,,,,,,,,,,,,,,,,,,0.0024299999931827188,0.004654699994716793,1.0153619999764487,0.9990280999918468,,,,,,,,,,,,,,,,,,,,,,,,,,,,,,,,,,,,,,,,,3,001,2026-04-27_13h46.02.570,Wisconsin Card Sorting Task,,2025.1.1,60.042317819305104,2026-04-27 13h46.09.123764 +0200,
,,,,,,,,,,,,,,,,,,,,,,,,,,,0.9990793999750167,1.0153619999764487,1.0153619999764487,7.330637999984901,space,6.3035636999993585,None,,,,,,,,,,,,,,,,,,,,,,,,,,,,,,,,,,3,001,2026-04-27_13h46.02.570,Wisconsin Card Sorting Task,,2025.1.1,60.042317819305104,2026-04-27 13h46.09.123764 +0200,
,,,,,,,,,,,,,,,,,,,,,,,,,,,,,,,,,,7.330671699979575,7.343631999974605,7.343631999974605,7.343631999974605,7.343631999974605,8.859513999981573,space,1.5022716000094078,None,,,,,,,,,,,,,,,,,,,,,,,,,3,001,2026-04-27_13h46.02.570,Wisconsin Card Sorting Task,,2025.1.1,60.042317819305104,2026-04-27 13h46.09.123764 +0200,
shape.xlsx,0,0,0,shape,images/3greenStars.JPG,images/4blueStars.JPG,0.18055555555555555,0.2490740740740741,1,0,0,three_green_crosses,0,0,0,0,0,0,0,42,8.890261199994711,,,,,,,,,,,,,,,,,,,,,,8.881572099984623,8.890261199994711,8.890261199994711,8.890261199994711,8.890261199994711,8.890261199994711,9.874774899974,9.89145819999976,1.0153367999882903,0,11.045526999980211,0.18055555555555555,0.2490740740740741,1,0,0,three_green_crosses,11.047193499980494,11.056993299978785,12.05669399999897,12.039823300001444,,,,3,001,2026-04-27_13h46.02.570,Wisconsin Card Sorting Task,,2025.1.1,60.042317819305104,2026-04-27 13h46.09.123764 +0200,
shape.xlsx,1,1,0,shape,images/1redCross.JPG,images/3greenCrosses.JPG,0.2037037037037037,0.2601851851851852,1,0,0,three_green_crosses,0,0,0,0,0,1,1,16,12.05669399999897,,,,,,,,,,,,,,,,,,,,,,12.04586269997526,12.05669399999897,12.05669399999897,12.05669399999897,12.05669399999897,12.05669399999897,13.055565799993929,13.07209359999979,1.0099523999961093,1,14.292649699986214,0.2037037037037037,0.2601851851851852,1,0,0,three_green_crosses,14.296876799984602,14.304229499975918,15.303888399997959,15.287238799995976,,,,3,001,2026-04-27_13h46.02.570,Wisconsin Card Sorting Task,,2025.1.1,60.042317819305104,2026-04-27 13h46.09.123764 +0200,
shape.xlsx,2,2,0,shape,images/4greenDots.jpg,images/1redDot.JPG,-0.42777777777777776,0.28425925925925927,1,0,0,one_red_dot,0,0,0,0,0,2,2,11,15.303888399997959,,,,,,,,,,,,,,,,,,,,,,15.294184999977006,15.303888399997959,15.303888399997959,15.303888399997959,15.303888399997959,15.303888399997959,16.30281159997685,16.319553099980112,1.0100006999855395,1,17.339614500000607,-0.42777777777777776,0.28425925925925927,1,0,0,one_red_dot,17.339885399997,17.35176709998632,18.351531699998304,18.334981799998786,,,,3,001,2026-04-27_13h46.02.570,Wisconsin Card Sorting Task,,2025.1.1,60.042317819305104,2026-04-27 13h46.09.123764 +0200,
shape.xlsx,3,3,0,shape,images/3redTriangles.JPG,images/2yellowTriangles.JPG,-0.2,0.20833333333333334,1,0,0,two_yellow_triangles,0,0,0,0,0,3,3,50,18.351531699998304,,,,,,,,,,,,,,,,,,,,,,18.34039739999571,18.351531699998304,18.351531699998304,18.351531699998304,18.351531699998304,18.351531699998304,19.35048399999505,19.36700909998035,1.0108506999968085,1,20.13865429998259,-0.2,0.20833333333333334,1,0,0,two_yellow_triangles,20.138907399988966,20.14955380000174,21.149185299989767,21.132672899984755,,,,3,001,2026-04-27_13h46.02.570,Wisconsin Card Sorting Task,,2025.1.1,60.042317819305104,2026-04-27 13h46.09.123764 +0200,
shape.xlsx,4,4,0,shape,images/3redCrosses.JPG,images/3greenCrosses.JPG,0.10648148148148148,0.20555555555555555,1,0,0,three_green_crosses,0,0,0,0,0,4,4,18,21.149185299989767,,,,,,,,,,,,,,,,,,,,,,21.13857289997395,21.149185299989767,21.149185299989767,21.149185299989767,21.149185299989767,21.149185299989767,22.148090299975593,22.164772299991455,1.0094059999973979,1,23.117193799989764,0.10648148148148148,0.20555555555555555,1,0,0,three_green_crosses,23.117436399974395,23.130409499979578,24.13003899998148,24.112925299996277,,,,3,001,2026-04-27_13h46.02.570,Wisconsin Card Sorting Task,,2025.1.1,60.042317819305104,2026-04-27 13h46.09.123764 +0200,
shape.xlsx,5,5,0,shape,images/1yellowTriangle.JPG,images/2yellowTriangles.JPG,-0.1574074074074074,0.3037037037037037,1,0,0,two_yellow_triangles,0,0,0,0,0,5,5,52,24.13003899998148,,,,,,,,,,,,,,,,,,,,,,24.119614099996397,24.13003899998148,24.13003899998148,24.13003899998148,24.13003899998148,24.13003899998148,25.128860500000883,25.145797899982426,1.0115301000187173,1,25.964781199989375,-0.1574074074074074,0.3037037037037037,1,0,0,two_yellow_triangles,25.96503349998966,25.978046099975472,26.97770349998609,26.960813999990933,,,,3,001,2026-04-27_13h46.02.570,Wisconsin Card Sorting Task,,2025.1.1,60.042317819305104,2026-04-27 13h46.09.123764 +0200,
shape.xlsx,6,6,0,shape,images/4blueStars.JPG,images/4blueStars.JPG,0.487962962962963,0.2101851851851852,1,0,0,four_blue_stars,0,0,0,0,0,6,6,47,26.97770349998609,,,,,,,,,,,,,,,,,,,,,,26.966554099984933,26.97770349998609,26.97770349998609,26.97770349998609,26.97770349998609,26.97770349998609,27.97663449999527,27.993342899979325,1.0117323999875225,1,28.946421999979066,0.487962962962963,0.2101851851851852,1,0,0,four_blue_stars,28.946666699979687,28.95878369998536,29.960379600001033,29.941800299973693,,,,3,001,2026-04-27_13h46.02.570,Wisconsin Card Sorting Task,,2025.1.1,60.042317819305104,2026-04-27 13h46.09.123764 +0200,
shape.xlsx,0,0,0,,,,,,,,,,0,0,0,0,,,,,,,,,,,,,,,,,,,,,,,,,,,,,,,,,,,,,,,,,,,,,,,,,,,3,001,2026-04-27_13h46.02.570,Wisconsin Card Sorting Task,,2025.1.1,60.042317819305104,2026-04-27 13h46.09.123764 +0200,
number.xlsx,0,0,0,number,images/2yellowStars.JPG,images/2yellowTriangles.JPG,0.44074074074074077,0.25092592592592594,1,0,0,four_blue_stars,0,1,1,2,0,0,0,37,29.960379600001033,,,,,,,,,,,,,,,,,,,,,,29.958125299977837,29.960379600001033,29.960379600001033,29.960379600001033,29.960379600001033,29.960379600001033,30.957363599998644,30.974053799989633,1.0108241999987513,0,32.408663999987766,0.44074074074074077,0.25092592592592594,1,0,0,four_blue_stars,32.41061299998546,32.42281659998116,33.42232859999058,33.40554669999983,,,,3,001,2026-04-27_13h46.02.570,Wisconsin Card Sorting Task,,2025.1.1,60.042317819305104,2026-04-27 13h46.09.123764 +0200,
number.xlsx,1,1,0,number,images/4blueCrosses.JPG,images/4blueStars.JPG,0.37037037037037035,0.17592592592592593,1,0,0,four_blue_stars,0,1,1,2,0,1,1,31,33.42232859999058,,,,,,,,,,,,,,,,,,,,,,33.41121709998697,33.42232859999058,33.42232859999058,33.42232859999058,33.42232859999058,33.42232859999058,34.42142199998489,34.42142199998489,1.0126144000096247,1,35.973281499987934,0.37037037037037035,0.17592592592592593,1,0,0,four_blue_stars,35.975652599998284,35.98645649998798,36.986082499992335,36.96938289998798,,,,3,001,2026-04-27_13h46.02.570,Wisconsin Card Sorting Task,,2025.1.1,60.042317819305104,2026-04-27 13h46.09.123764 +0200,
number.xlsx,2,2,0,number,images/4yellowStars.JPG,images/4blueStars.JPG,0.3888888888888889,0.19537037037037036,1,0,0,four_blue_stars,0,1,1,2,0,2,2,39,36.986082499992335,,,,,,,,,,,,,,,,,,,,,,36.975178900000174,36.986082499992335,36.986082499992335,36.986082499992335,36.986082499992335,36.986082499992335,37.98509349999949,38.00158250000095,1.0117858000157867,1,38.90431479999097,0.3888888888888889,0.19537037037037036,1,0,0,four_blue_stars,38.90456099997391,38.91738030000124,39.91706519998843,39.90012469998328,,,,3,001,2026-04-27_13h46.02.570,Wisconsin Card Sorting Task,,2025.1.1,60.042317819305104,2026-04-27 13h46.09.123764 +0200,
number.xlsx,3,3,0,number,images/3blueCrosses.JPG,images/3greenCrosses.JPG,0.13148148148148148,0.27870370370370373,1,0,0,three_green_crosses,0,1,1,2,0,3,3,30,39.91706519998843,,,,,,,,,,,,,,,,,,,,,,39.905534399993485,39.91706519998843,39.91706519998843,39.91706519998843,39.91706519998843,39.91706519998843,40.91587029999937,40.932493599975714,1.0114350000221748,1,41.91944699999294,0.13148148148148148,0.27870370370370373,1,0,0,three_green_crosses,41.91970119997859,41.93158889998449,42.93113769998308,42.91460930000176,,,,3,001,2026-04-27_13h46.02.570,Wisconsin Card Sorting Task,,2025.1.1,60.042317819305104,2026-04-27 13h46.09.123764 +0200,
number.xlsx,4,4,0,number,images/1blueTriangle.JPG,images/1redDot.JPG,-0.3148148148148148,0.2916666666666667,1,0,0,None,0,1,1,2,0,4,4,60,42.93113769998308,,,,,,,,,,,,,,,,,,,,,,42.92159769998398,42.93113769998308,42.93113769998308,42.93113769998308,42.93113769998308,42.93113769998308,43.930102999991504,43.930102999991504,1.010582399991108,,45.18396919997758,-0.3148148148148148,0.2916666666666667,1,0,0,None,45.18551650000154,45.19563449997804,46.195074199989904,46.17850829998497,,,,3,001,2026-04-27_13h46.02.570,Wisconsin Card Sorting Task,,2025.1.1,60.042317819305104,2026-04-27 13h46.09.123764 +0200,
number.xlsx,5,5,0,number,images/1yellowCross.JPG,images/1redDot.JPG,-0.5018518518518519,0.22870370370370371,1,0,0,one_red_dot,0,1,1,2,0,5,5,20,46.195074199989904,,,,,,,,,,,,,,,,,,,,,,46.186061099986546,46.195074199989904,46.195074199989904,46.195074199989904,46.195074199989904,46.195074199989904,47.19420009999885,47.19420009999885,1.010303599992767,1,48.66224129998591,-0.5018518518518519,0.22870370370370371,1,0,0,one_red_dot,48.66454239998711,48.67651829999522,,49.67560560000129,,,,3,001,2026-04-27_13h46.02.570,Wisconsin Card Sorting Task,,2025.1.1,60.042317819305104,2026-04-27 13h46.09.123764 +0200,
number.xlsx,6,6,0,number,images/4yellowDots.jpg,images/4blueStars.JPG,0.41574074074074074,0.1824074074074074,1,0,0,four_blue_stars,0,1,1,2,0,6,6,7,49.692133899981854,,,,,,,,,,,,,,,,,,,,,,49.68150059998152,49.692133899981854,49.692133899981854,49.692133899981854,49.692133899981854,49.692133899981854,50.67464039998595,50.69118609998259,1.0123103999940213,1,51.77579789998708,0.41574074074074074,0.1824074074074074,1,0,0,four_blue_stars,51.776073699991684,51.79010119999293,52.79142509997473,52.77293889998691,,,,3,001,2026-04-27_13h46.02.570,Wisconsin Card Sorting Task,,2025.1.1,60.042317819305104,2026-04-27 13h46.09.123764 +0200,
number.xlsx,1,1,0,,,,,,,,,,0,1,1,2,,,,,,,,,,,,,,,,,,,,,,,,,,,,,,,,,,,,,,,,,,,,,,,,,,,3,001,2026-04-27_13h46.02.570,Wisconsin Card Sorting Task,,2025.1.1,60.042317819305104,2026-04-27 13h46.09.123764 +0200,
colour.xlsx,0,0,0,colour,images/2yellowStars.JPG,images/2yellowTriangles.JPG,-0.12685185185185185,0.2111111111111111,1,0,0,two_yellow_triangles,0,2,2,1,0,0,0,37,52.79142509997473,,,,,,,,,,,,,,,,,,,,,,52.788625599991065,52.79142509997473,52.79142509997473,52.79142509997473,52.79142509997473,52.79142509997473,53.78857069998048,53.805377299984684,1.0126206999993883,1,54.59054009997635,-0.12685185185185185,0.2111111111111111,1,0,0,two_yellow_triangles,54.5909943000006,54.6044490999775,55.60411309998017,55.587477499997476,,,,3,001,2026-04-27_13h46.02.570,Wisconsin Card Sorting Task,,2025.1.1,60.042317819305104,2026-04-27 13h46.09.123764 +0200,
colour.xlsx,1,1,0,colour,images/1redCross.JPG,images/1redDot.JPG,-0.5083333333333333,0.28703703703703703,1,0,0,one_red_dot,0,2,2,1,0,1,1,16,55.60411309998017,,,,,,,,,,,,,,,,,,,,,,55.59391329999198,55.60411309998017,55.60411309998017,55.60411309998017,55.60411309998017,55.60411309998017,56.603120299987495,56.61978670000099,1.012392100004945,1,57.47180499997921,-0.5083333333333333,0.28703703703703703,1,0,0,one_red_dot,57.472042399982456,57.485784499993315,,58.48464039998362,,,,3,001,2026-04-27_13h46.02.570,Wisconsin Card Sorting Task,,2025.1.1,60.042317819305104,2026-04-27 13h46.09.123764 +0200,
colour.xlsx,2,2,0,colour,images/2redDots.jpg,images/1redDot.JPG,-0.16296296296296298,0.2064814814814815,1,0,0,two_yellow_triangles,0,2,2,1,0,2,2,1,58.50176539999666,,,,,,,,,,,,,,,,,,,,,,58.491507699975045,58.50176539999666,58.50176539999666,58.50176539999666,58.50176539999666,58.50176539999666,59.48395649998565,59.5172184999974,1.0123102000216022,0,60.421000199974515,-0.16296296296296298,0.2064814814814815,1,0,0,two_yellow_triangles,60.422630999994,60.43284749999293,61.43245929997647,61.4160727999988,,,,3,001,2026-04-27_13h46.02.570,Wisconsin Card Sorting Task,,2025.1.1,60.042317819305104,2026-04-27 13h46.09.123764 +0200,
colour.xlsx,3,3,0,colour,images/2greenStars.JPG,images/3greenCrosses.JPG,0.175,0.21574074074074073,1,0,0,three_green_crosses,0,2,2,1,0,3,3,41,61.43245929997647,,,,,,,,,,,,,,,,,,,,,,61.42828049999662,61.43245929997647,61.43245929997647,61.43245929997647,61.43245929997647,61.43245929997647,62.43151119997492,62.43151119997492,1.010366399976192,1,63.36749889998464,0.175,0.21574074074074073,1,0,0,three_green_crosses,63.37020720000146,63.380416799976956,64.38000159998774,64.36348809997435,,,,3,001,2026-04-27_13h46.02.570,Wisconsin Card Sorting Task,,2025.1.1,60.042317819305104,2026-04-27 13h46.09.123764 +0200,
colour.xlsx,4,4,0,colour,images/1blueStar.JPG,images/4blueStars.JPG,0.3435185185185185,0.13240740740740742,1,0,0,four_blue_stars,0,2,2,1,0,4,4,44,64.38000159998774,,,,,,,,,,,,,,,,,,,,,,64.369924300001,64.38000159998774,64.38000159998774,64.38000159998774,64.38000159998774,64.38000159998774,65.37919949999196,65.37919949999196,1.0116905999893788,1,66.29744779999601,0.3435185185185185,0.13240740740740742,1,0,0,four_blue_stars,66.29770149997785,66.31145359997754,67.31114989999332,67.29442239998025,,,,3,001,2026-04-27_13h46.02.570,Wisconsin Card Sorting Task,,2025.1.1,60.042317819305104,2026-04-27 13h46.09.123764 +0200,
colour.xlsx,5,5,0,colour,images/3blueStars.JPG,images/4blueStars.JPG,0.40370370370370373,0.287962962962963,1,0,0,four_blue_stars,0,2,2,1,0,5,5,46,67.31114989999332,,,,,,,,,,,,,,,,,,,,,,67.30188809998799,67.31114989999332,67.31114989999332,67.31114989999332,67.31114989999332,67.31114989999332,68.3101517999894,68.32662129998789,1.0125766000128351,1,69.27942739997525,0.40370370370370373,0.287962962962963,1,0,0,four_blue_stars,69.27970559999812,69.29238359999727,70.29208119999385,70.27517139998963,,,,3,001,2026-04-27_13h46.02.570,Wisconsin Card Sorting Task,,2025.1.1,60.042317819305104,2026-04-27 13h46.09.123764 +0200,
colour.xlsx,6,6,0,colour,images/1greenTriangle.JPG,images/3greenCrosses.JPG,0.15185185185185185,0.23148148148148148,1,0,0,three_green_crosses,0,2,2,1,0,6,6,56,70.29208119999385,,,,,,,,,,,,,,,,,,,,,,70.28068579998217,70.29208119999385,70.29208119999385,70.29208119999385,70.29208119999385,70.29208119999385,71.29101929999888,71.3077000999765,1.0115459999942686,1,72.11129839997739,0.15185185185185185,0.23148148148148148,1,0,0,three_green_crosses,72.11158319999231,72.12326819999726,73.1236791999836,73.10608040000079,,,,3,001,2026-04-27_13h46.02.570,Wisconsin Card Sorting Task,,2025.1.1,60.042317819305104,2026-04-27 13h46.09.123764 +0200,
colour.xlsx,2,2,0,,,,,,,,,,0,2,2,1,,,,,,,,,,,,,,,,,,,,,,,,,,,,,,,,,,,,,,,,,,,,,,,,,,,3,001,2026-04-27_13h46.02.570,Wisconsin Card Sorting Task,,2025.1.1,60.042317819305104,2026-04-27 13h46.09.123764 +0200,
shape.xlsx,0,0,0,shape,images/3blueCrosses.JPG,images/3greenCrosses.JPG,0.41574074074074074,0.2462962962962963,1,0,0,four_blue_stars,1,0,3,0,0,0,0,30,73.1236791999836,,,,,,,,,,,,,,,,,,,,,,73.12126149999676,73.1236791999836,73.1236791999836,73.1236791999836,73.1236791999836,73.1236791999836,74.12184109998634,74.13847720000194,1.0103528999898117,0,75.15923779999139,0.41574074074074074,0.2462962962962963,1,0,0,four_blue_stars,75.1611437999818,75.17077969998354,76.17048390000127,76.15393139998196,,,,3,001,2026-04-27_13h46.02.570,Wisconsin Card Sorting Task,,2025.1.1,60.042317819305104,2026-04-27 13h46.09.123764 +0200,
shape.xlsx,1,1,0,shape,images/3blueDots.JPG,images/1redDot.JPG,0.12407407407407407,0.27685185185185185,1,0,0,three_green_crosses,1,0,3,0,0,1,1,14,76.17048390000127,,,,,,,,,,,,,,,,,,,,,,76.16046539999661,76.17048390000127,76.17048390000127,76.17048390000127,76.17048390000127,76.17048390000127,77.16937299998244,77.16937299998244,1.0100074000074528,0,78.1729856999882,0.12407407407407407,0.27685185185185185,1,0,0,three_green_crosses,78.17334680000204,78.18499349997728,79.18475549999857,79.16770869999891,,,,3,001,2026-04-27_13h46.02.570,Wisconsin Card Sorting Task,,2025.1.1,60.042317819305104,2026-04-27 13h46.09.123764 +0200,
shape.xlsx,2,2,0,shape,images/2redTriangles.JPG,images/2yellowTriangles.JPG,-0.14537037037037037,0.2916666666666667,1,0,0,two_yellow_triangles,1,0,3,0,0,2,2,49,79.18475549999857,,,,,,,,,,,,,,,,,,,,,,79.17331329997978,79.18475549999857,79.18475549999857,79.18475549999857,79.18475549999857,79.18475549999857,80.18367509997915,80.20039509999333,1.010559899994405,1,81.02160849998472,-0.14537037037037037,0.2916666666666667,1,0,0,two_yellow_triangles,81.02471609998611,81.0326830999984,82.03247679999913,82.0154756999982,,,,3,001,2026-04-27_13h46.02.570,Wisconsin Card Sorting Task,,2025.1.1,60.042317819305104,2026-04-27 13h46.09.123764 +0200,
shape.xlsx,3,3,0,shape,images/3redTriangles.JPG,images/2yellowTriangles.JPG,-0.13240740740740742,0.28055555555555556,1,0,0,two_yellow_triangles,1,0,3,0,0,3,3,50,82.03247679999913,,,,,,,,,,,,,,,,,,,,,,82.02105309997569,82.03247679999913,82.03247679999913,82.03247679999913,82.03247679999913,82.03247679999913,83.03140809998149,83.04805250000209,1.0090922999952454,1,84.35057319997577,-0.13240740740740742,0.28055555555555556,1,0,0,two_yellow_triangles,84.35082439999678,84.36315819999436,85.36289349998697,85.34654020000016,,,,3,001,2026-04-27_13h46.02.570,Wisconsin Card Sorting Task,,2025.1.1,60.042317819305104,2026-04-27 13h46.09.123764 +0200,
shape.xlsx,4,4,0,shape,images/4yellowCrosses.JPG,images/3greenCrosses.JPG,0.14814814814814814,0.2611111111111111,1,0,0,three_green_crosses,1,0,3,0,0,4,4,23,85.36289349998697,,,,,,,,,,,,,,,,,,,,,,85.35297609999543,85.36289349998697,85.36289349998697,85.36289349998697,85.36289349998697,85.36289349998697,86.361921099975,86.37868719999096,1.011211100005312,1,87.31457799999043,0.14814814814814814,0.2611111111111111,1,0,0,three_green_crosses,87.31486789998598,87.32752549997531,88.32711479999125,88.31051159999333,,,,3,001,2026-04-27_13h46.02.570,Wisconsin Card Sorting Task,,2025.1.1,60.042317819305104,2026-04-27 13h46.09.123764 +0200,
shape.xlsx,5,5,0,shape,images/2greenStars.JPG,images/4blueStars.JPG,0.4787037037037037,0.2962962962962963,1,0,0,four_blue_stars,1,0,3,0,0,5,5,41,88.32711479999125,,,,,,,,,,,,,,,,,,,,,,88.3161280999775,88.32711479999125,88.32711479999125,88.32711479999125,88.32711479999125,88.32711479999125,89.32620699997642,89.3428428999905,1.0115534999931697,1,90.8942230999819,0.4787037037037037,0.2962962962962963,1,0,0,four_blue_stars,90.8945622999745,90.90793989997474,91.90753489997587,91.89074360000086,,,,3,001,2026-04-27_13h46.02.570,Wisconsin Card Sorting Task,,2025.1.1,60.042317819305104,2026-04-27 13h46.09.123764 +0200,
shape.xlsx,6,6,0,shape,images/3redStars.JPG,images/4blueStars.JPG,0.40370370370370373,0.24351851851851852,1,0,0,four_blue_stars,1,0,3,0,0,6,6,34,91.90753489997587,,,,,,,,,,,,,,,,,,,,,,91.89922709998791,91.90753489997587,91.90753489997587,91.90753489997587,91.90753489997587,91.90753489997587,92.90650029998505,92.92327410000144,1.0121759000176098,1,93.8751246999891,0.40370370370370373,0.24351851851851852,1,0,0,four_blue_stars,93.87538459998905,93.8889667999756,94.89031669998076,94.87179789997754,,,,3,001,2026-04-27_13h46.02.570,Wisconsin Card Sorting Task,,2025.1.1,60.042317819305104,2026-04-27 13h46.09.123764 +0200,
shape.xlsx,3,0,1,,,,,,,,,,1,0,3,0,,,,,,,,,,,,,,,,,,,,,,,,,,,,,,,,,,,,,,,,,,,,,,,,,,,3,001,2026-04-27_13h46.02.570,Wisconsin Card Sorting Task,,2025.1.1,60.042317819305104,2026-04-27 13h46.09.123764 +0200,
colour.xlsx,0,0,0,colour,images/4redStars.JPG,images/1redDot.JPG,0.40370370370370373,0.24351851851851852,1,0,0,four_blue_stars,1,1,4,1,0,0,0,35,94.89031669998076,,,,,,,,,,,,,,,,,,,,,,94.8881740999932,94.89031669998076,94.89031669998076,94.89031669998076,94.89031669998076,94.89031669998076,95.88751409997349,95.90391959997942,1.0122694000019692,0,96.60653189997538,0.40370370370370373,0.24351851851851852,1,0,0,four_blue_stars,96.60929669998586,96.61996399998316,97.6195149999985,97.60273189999862,,,,3,001,2026-04-27_13h46.02.570,Wisconsin Card Sorting Task,,2025.1.1,60.042317819305104,2026-04-27 13h46.09.123764 +0200,
colour.xlsx,1,1,0,colour,images/4redTriangles.JPG,images/1redDot.JPG,-0.4787037037037037,0.23703703703703705,1,0,0,one_red_dot,1,1,4,1,0,1,1,51,97.6195149999985,,,,,,,,,,,,,,,,,,,,,,97.61296569998376,97.6195149999985,97.6195149999985,97.6195149999985,97.6195149999985,97.6195149999985,98.61853639999754,98.63508759997785,1.0118757000018377,1,99.58663969999179,-0.4787037037037037,0.23703703703703705,1,0,0,one_red_dot,99.58899359998759,99.60073859998374,100.60025889999815,100.58353360000183,,,,3,001,2026-04-27_13h46.02.570,Wisconsin Card Sorting Task,,2025.1.1,60.042317819305104,2026-04-27 13h46.09.123764 +0200,
colour.xlsx,2,2,0,colour,images/2blueCrosses.JPG,images/4blueStars.JPG,0.44537037037037036,0.32037037037037036,1,0,0,four_blue_stars,1,1,4,1,0,2,2,29,100.60025889999815,,,,,,,,,,,,,,,,,,,,,,100.5905647999898,100.60025889999815,100.60025889999815,100.60025889999815,100.60025889999815,100.60025889999815,101.59939729998587,101.59939729998587,1.0126115000166465,1,103.63330129999667,0.44537037037037036,0.32037037037037036,1,0,0,four_blue_stars,103.6335490999918,103.64749419997679,104.64691219999804,104.6304748999828,,,,3,001,2026-04-27_13h46.02.570,Wisconsin Card Sorting Task,,2025.1.1,60.042317819305104,2026-04-27 13h46.09.123764 +0200,
colour.xlsx,3,3,0,colour,images/4redDots.jpg,images/1redDot.JPG,-0.43796296296296294,0.18981481481481483,1,0,0,one_red_dot,1,1,4,1,0,3,3,3,104.64691219999804,,,,,,,,,,,,,,,,,,,,,,104.6387261999771,104.64691219999804,104.64691219999804,104.64691219999804,104.64691219999804,104.64691219999804,105.64600819998304,105.64600819998304,1.0127947999862954,1,106.448791599978,-0.43796296296296294,0.18981481481481483,1,0,0,one_red_dot,106.44902770000044,106.46176059998106,107.46131269997568,107.44432999999844,,,,3,001,2026-04-27_13h46.02.570,Wisconsin Card Sorting Task,,2025.1.1,60.042317819305104,2026-04-27 13h46.09.123764 +0200,
colour.xlsx,4,4,0,colour,images/2redCrosses.JPG,images/1redDot.JPG,-0.4388888888888889,0.25,1,0,0,one_red_dot,1,1,4,1,0,4,4,17,107.46131269997568,,,,,,,,,,,,,,,,,,,,,,107.45584569999482,107.46131269997568,107.46131269997568,107.46131269997568,107.46131269997568,107.46131269997568,108.46050939999986,108.46050939999986,1.0117720999987796,1,109.27812750000157,-0.4388888888888889,0.25,1,0,0,one_red_dot,109.27836050000042,109.29270409999299,110.29235029997653,110.2755838999874,,,,3,001,2026-04-27_13h46.02.570,Wisconsin Card Sorting Task,,2025.1.1,60.042317819305104,2026-04-27 13h46.09.123764 +0200,
colour.xlsx,5,5,0,colour,images/4blueTriangles.JPG,images/4blueStars.JPG,0.38425925925925924,0.225,1,0,0,four_blue_stars,1,1,4,1,0,5,5,63,110.29235029997653,,,,,,,,,,,,,,,,,,,,,,110.28556759998901,110.29235029997653,110.29235029997653,110.29235029997653,110.29235029997653,110.29235029997653,111.29115379997529,111.29115379997529,1.0128912000218406,1,112.3283337999892,0.38425925925925924,0.225,1,0,0,four_blue_stars,112.32858750000014,112.34025959999417,113.33994829998119,113.32333819998894,,,,3,001,2026-04-27_13h46.02.570,Wisconsin Card Sorting Task,,2025.1.1,60.042317819305104,2026-04-27 13h46.09.123764 +0200,
colour.xlsx,6,6,0,colour,images/2greenStars.JPG,images/3greenCrosses.JPG,0.18518518518518517,0.2574074074074074,1,0,0,three_green_crosses,1,1,4,1,0,6,6,41,113.33994829998119,,,,,,,,,,,,,,,,,,,,,,113.33125209997525,113.33994829998119,113.33994829998119,113.33994829998119,113.33994829998119,113.33994829998119,114.33881289997953,114.35566599998856,1.010357599996496,1,115.09053729998413,0.18518518518518517,0.2574074074074074,1,0,0,three_green_crosses,115.09077089998755,115.10466959999758,116.10478090000106,116.08744569998817,,,,3,001,2026-04-27_13h46.02.570,Wisconsin Card Sorting Task,,2025.1.1,60.042317819305104,2026-04-27 13h46.09.123764 +0200,
colour.xlsx,4,1,1,,,,,,,,,,1,1,4,1,,,,,,,,,,,,,,,,,,,,,,,,,,,,,,,,,,,,,,,,,,,,,,,,,,,3,001,2026-04-27_13h46.02.570,Wisconsin Card Sorting Task,,2025.1.1,60.042317819305104,2026-04-27 13h46.09.123764 +0200,
number.xlsx,0,0,0,number,images/1greenStar.JPG,images/1redDot.JPG,0.18518518518518517,0.2574074074074074,1,0,0,three_green_crosses,1,2,5,2,0,0,0,40,116.10478090000106,,,,,,,,,,,,,,,,,,,,,,116.10282349999761,116.10478090000106,116.10478090000106,116.10478090000106,116.10478090000106,116.10478090000106,117.10330569997313,117.12002809997648,1.0126683999842498,0,117.77209319997928,0.18518518518518517,0.2574074074074074,1,0,0,three_green_crosses,117.7739551999839,117.78562949999468,118.7854089999746,118.76897979999194,,,,3,001,2026-04-27_13h46.02.570,Wisconsin Card Sorting Task,,2025.1.1,60.042317819305104,2026-04-27 13h46.09.123764 +0200,
number.xlsx,1,1,0,number,images/1yellowStar.JPG,images/1redDot.JPG,0.46296296296296297,0.21851851851851853,1,0,0,four_blue_stars,1,2,5,2,0,1,1,36,118.7854089999746,,,,,,,,,,,,,,,,,,,,,,118.77600529999472,118.7854089999746,118.7854089999746,118.7854089999746,118.7854089999746,118.7854089999746,119.7843867999909,119.7843867999909,1.0121698000002652,0,120.60389109997777,0.46296296296296297,0.21851851851851853,1,0,0,four_blue_stars,120.6041401999828,120.61684099998092,121.61646359998849,121.5996363000013,,,,3,001,2026-04-27_13h46.02.570,Wisconsin Card Sorting Task,,2025.1.1,60.042317819305104,2026-04-27 13h46.09.123764 +0200,
number.xlsx,2,2,0,number,images/4yellowTriangles.JPG,images/4blueStars.JPG,0.43333333333333335,0.20277777777777778,1,0,0,four_blue_stars,1,2,5,2,0,2,2,55,121.61646359998849,,,,,,,,,,,,,,,,,,,,,,121.60682879999513,121.61646359998849,121.61646359998849,121.61646359998849,121.61646359998849,121.61646359998849,122.61548809998203,122.6320155999856,1.0116195000009611,1,123.60171659998014,0.43333333333333335,0.20277777777777778,1,0,0,four_blue_stars,123.603627399978,123.61465579998912,124.61385969998082,124.59729209999205,,,,3,001,2026-04-27_13h46.02.570,Wisconsin Card Sorting Task,,2025.1.1,60.042317819305104,2026-04-27 13h46.09.123764 +0200,
number.xlsx,3,3,0,number,images/2greenTriangles.JPG,images/2yellowTriangles.JPG,-0.10092592592592593,0.2777777777777778,1,0,0,two_yellow_triangles,1,2,5,2,0,3,3,57,124.61385969998082,,,,,,,,,,,,,,,,,,,,,,124.60617210000055,124.61385969998082,124.61385969998082,124.61385969998082,124.61385969998082,124.61385969998082,125.61296359999687,125.61296359999687,1.0112489000021014,1,126.46432289999211,-0.10092592592592593,0.2777777777777778,1,0,0,two_yellow_triangles,126.46456029999536,126.47861299998476,127.47825539999758,127.46174309999333,,,,3,001,2026-04-27_13h46.02.570,Wisconsin Card Sorting Task,,2025.1.1,60.042317819305104,2026-04-27 13h46.09.123764 +0200,
number.xlsx,4,4,0,number,images/1blueStar.JPG,images/1redDot.JPG,-0.43333333333333335,0.2638888888888889,1,0,0,one_red_dot,1,2,5,2,0,4,4,44,127.47825539999758,,,,,,,,,,,,,,,,,,,,,,127.47081040000194,127.47825539999758,127.47825539999758,127.47825539999758,127.47825539999758,127.47825539999758,128.47723019999103,128.49405769997975,1.0128824999846984,1,129.36238259999664,-0.43333333333333335,0.2638888888888889,1,0,0,one_red_dot,129.36269999999786,129.37616489999346,130.37575499998638,130.35902319999877,,,,3,001,2026-04-27_13h46.02.570,Wisconsin Card Sorting Task,,2025.1.1,60.042317819305104,2026-04-27 13h46.09.123764 +0200,
number.xlsx,5,5,0,number,images/3redTriangles.JPG,images/3greenCrosses.JPG,0.12314814814814815,0.2740740740740741,1,0,0,three_green_crosses,1,2,5,2,0,5,5,50,130.37575499998638,,,,,,,,,,,,,,,,,,,,,,130.36610959999962,130.37575499998638,130.37575499998638,130.37575499998638,130.37575499998638,130.37575499998638,131.37476669999887,131.37476669999887,1.0122056000109296,1,132.55957699997816,0.12314814814814815,0.2740740740740741,1,0,0,three_green_crosses,132.55981859998428,132.573567799991,133.57315519999247,133.5564703999844,,,,3,001,2026-04-27_13h46.02.570,Wisconsin Card Sorting Task,,2025.1.1,60.042317819305104,2026-04-27 13h46.09.123764 +0200,
number.xlsx,6,6,0,number,images/3yellowCrosses.JPG,images/3greenCrosses.JPG,0.12314814814814815,0.2740740740740741,1,0,0,three_green_crosses,1,2,5,2,0,6,6,22,133.57315519999247,,,,,,,,,,,,,,,,,,,,,,133.56344659999013,133.57315519999247,133.57315519999247,133.57315519999247,133.57315519999247,133.57315519999247,134.57213570000022,134.58894759998657,1.0124227000051178,1,135.2418596999778,0.12314814814814815,0.2740740740740741,1,0,0,three_green_crosses,135.2420979999879,135.25505659999908,,136.25402439999743,,,,3,001,2026-04-27_13h46.02.570,Wisconsin Card Sorting Task,,2025.1.1,60.042317819305104,2026-04-27 13h46.09.123764 +0200,
number.xlsx,5,2,1,,,,,,,,,,1,2,5,2,,,,,,,,,,,,,,,,,,,,,,,,,,,,,,,,,,,,,,,,,,,,,,,,,,,3,001,2026-04-27_13h46.02.570,Wisconsin Card Sorting Task,,2025.1.1,60.042317819305104,2026-04-27 13h46.09.123764 +0200,
,,,,,,,,,,,,,,,,,,,,,,,,,,,,,,,,,,,,,,,,,,,,,,,,,,,,,,,,,,,,,,,,136.25771309999982,136.27125259998138,139.2520203999884,3,001,2026-04-27_13h46.02.570,Wisconsin Card Sorting Task,,2025.1.1,60.042317819305104,2026-04-27 13h46.09.123764 +0200,
