condition_file,thisN,thisTrialN,thisRepN,rule,card,corrAns,response.x,response.y,response.leftButton,response.midButton,response.rightButton,response.clicked_name,blocks.thisRepN,blocks.thisTrialN,blocks.thisN,blocks.thisIndex,trials.thisRepN,trials.thisTrialN,trials.thisN,trials.thisIndex,thisRow.t,notes,INIT_LSL.started,text_init.started,text_init.stopped,INIT_LSL.stopped,Instructions.started,instructions.started,key_resp.started,Instructions.stopped,key_resp.keys,key_resp.rt,key_resp.duration,Example.started,example_text.started,example_image.started,example_text_2.started,key_resp_2.started,Example.stopped,key_resp_2.keys,key_resp_2.rt,key_resp_2.duration,Trials.started,fixation.started,one_red_dot.started,two_yellow_triangles.started,three_green_crosses.started,four_blue_stars.started,trial_card.started,fixation.stopped,response.started,correct,Trials.stopped,trials.response.x,trials.response.y,trials.response.leftButton,trials.response.midButton,trials.response.rightButton,trials.response.clicked_name,Feedback.started,feedback_text.started,feedback_text.stopped,Feedback.stopped,End.started,thank_you.started,End.stopped,participant,session,date,expName,expVersion,psychopyVersion,frameRate,expStart,
,,,,,,,,,,,,,,,,,,,,,,,0.0072321000043302774,0.009500600004685111,1.0091557999985525,0.9927290000050562,,,,,,,,,,,,,,,,,,,,,,,,,,,,,,,,,,,,,,,,,1 - DUAL,001,2026-05-05_11h12.45.628,Wisconsin Card Sorting Task,,2025.1.1,60.02159576864687,2026-05-05 11h13.06.276739 +0200,
,,,,,,,,,,,,,,,,,,,,,,,,,,,0.9927794000104768,1.0091557999985525,1.0091557999985525,10.205007299999124,space,9.174630699999398,None,,,,,,,,,,,,,,,,,,,,,,,,,,,,,,,,,,1 - DUAL,001,2026-05-05_11h12.45.628,Wisconsin Card Sorting Task,,2025.1.1,60.02159576864687,2026-05-05 11h13.06.276739 +0200,
,,,,,,,,,,,,,,,,,,,,,,,,,,,,,,,,,,10.205039000007673,10.21827189999749,10.21827189999749,10.21827189999749,10.21827189999749,15.83069339999929,space,5.607476700010011,None,,,,,,,,,,,,,,,,,,,,,,,,,1 - DUAL,001,2026-05-05_11h12.45.628,Wisconsin Card Sorting Task,,2025.1.1,60.02159576864687,2026-05-05 11h13.06.276739 +0200,
colour.xlsx,0,0,0,colour,images/3yellowCrosses.JPG,images/2yellowTriangles.JPG,0.2361111111111111,0.28703703703703703,1,0,0,three_green_crosses,0,0,0,1,0,0,0,22,15.862516599998344,,,,,,,,,,,,,,,,,,,,,,15.853279700007988,15.862516599998344,15.862516599998344,15.862516599998344,15.862516599998344,15.862516599998344,16.846130400008406,16.862779600007343,1.0156883000017842,0,18.93267979999655,0.2361111111111111,0.28703703703703703,1,0,0,three_green_crosses,18.934567300006165,18.944194900002913,19.94391440000618,19.927250699998694,,,,1 - DUAL,001,2026-05-05_11h12.45.628,Wisconsin Card Sorting Task,,2025.1.1,60.02159576864687,2026-05-05 11h13.06.276739 +0200,
colour.xlsx,1,1,0,colour,images/1yellowTriangle.JPG,images/2yellowTriangles.JPG,-0.45740740740740743,0.19444444444444445,1,0,0,one_red_dot,0,0,0,1,0,1,1,52,19.94391440000618,,,,,,,,,,,,,,,,,,,,,,19.935278000004473,19.94391440000618,19.94391440000618,19.94391440000618,19.94391440000618,19.94391440000618,20.942863000003854,20.959497600008035,1.010232200002065,0,27.410454700002447,-0.45740740740740743,0.19444444444444445,1,0,0,one_red_dot,27.410706800001208,27.42060389999824,,28.419971800001804,,,,1 - DUAL,001,2026-05-05_11h12.45.628,Wisconsin Card Sorting Task,,2025.1.1,60.02159576864687,2026-05-05 11h13.06.276739 +0200,
colour.xlsx,2,2,0,colour,images/2greenCrosses.JPG,images/3greenCrosses.JPG,0.13055555555555556,0.23796296296296296,1,0,0,three_green_crosses,0,0,0,1,0,2,2,25,28.436925000001793,,,,,,,,,,,,,,,,,,,,,,28.429002700009733,28.436925000001793,28.436925000001793,28.436925000001793,28.436925000001793,28.436925000001793,29.4192294000095,29.452484900000854,1.0088135999976657,1,37.55091910000192,0.13055555555555556,0.23796296296296296,1,0,0,three_green_crosses,37.55445310000505,37.56255119999696,,38.5615647000086,,,,1 - DUAL,001,2026-05-05_11h12.45.628,Wisconsin Card Sorting Task,,2025.1.1,60.02159576864687,2026-05-05 11h13.06.276739 +0200,
colour.xlsx,3,3,0,colour,images/1yellowDot.jpg,images/2yellowTriangles.JPG,-0.1425925925925926,0.2111111111111111,1,0,0,two_yellow_triangles,0,0,0,1,0,3,3,4,38.57864479999989,,,,,,,,,,,,,,,,,,,,,,38.569963700007065,38.57864479999989,38.57864479999989,38.57864479999989,38.57864479999989,38.57864479999989,39.56084689999989,39.594159500004025,1.0104161000053864,1,40.77813449999667,-0.1425925925925926,0.2111111111111111,1,0,0,two_yellow_triangles,40.778547599999,40.79329349999898,,41.79223040000943,,,,1 - DUAL,001,2026-05-05_11h12.45.628,Wisconsin Card Sorting Task,,2025.1.1,60.02159576864687,2026-05-05 11h13.06.276739 +0200,
colour.xlsx,4,4,0,colour,images/4greenDots.jpg,images/3greenCrosses.JPG,0.12222222222222222,0.262037037037037,1,0,0,three_green_crosses,0,0,0,1,0,4,4,11,41.80911539999943,,,,,,,,,,,,,,,,,,,,,,41.79956390000007,41.80911539999943,41.80911539999943,41.80911539999943,41.80911539999943,41.80911539999943,42.7914424000046,42.82498889999988,1.0130904000106966,1,44.162554399998044,0.12222222222222222,0.262037037037037,1,0,0,three_green_crosses,44.162812499998836,44.17354360000172,45.173209500004305,45.15626030000567,,,,1 - DUAL,001,2026-05-05_11h12.45.628,Wisconsin Card Sorting Task,,2025.1.1,60.02159576864687,2026-05-05 11h13.06.276739 +0200,
colour.xlsx,5,5,0,colour,images/1redCross.JPG,images/1redDot.JPG,-0.5259259259259259,0.23981481481481481,1,0,0,one_red_dot,0,0,0,1,0,5,5,16,45.173209500004305,,,,,,,,,,,,,,,,,,,,,,45.16307350000716,45.173209500004305,45.173209500004305,45.173209500004305,45.173209500004305,45.173209500004305,46.172140800001216,46.18875709999702,1.009442599999602,1,47.592088400007924,-0.5259259259259259,0.23981481481481481,1,0,0,one_red_dot,47.59236690000398,47.60396459999902,48.60351120000996,48.586763600003906,,,,1 - DUAL,001,2026-05-05_11h12.45.628,Wisconsin Card Sorting Task,,2025.1.1,60.02159576864687,2026-05-05 11h13.06.276739 +0200,
colour.xlsx,6,6,0,colour,images/1redTriangle.JPG,images/1redDot.JPG,-0.5259259259259259,0.23981481481481481,1,0,0,one_red_dot,0,0,0,1,0,6,6,48,48.60351120000996,,,,,,,,,,,,,,,,,,,,,,48.59328319999622,48.60351120000996,48.60351120000996,48.60351120000996,48.60351120000996,48.60351120000996,49.60266520000005,49.60266520000005,1.0105615000065882,1,50.73824839999725,-0.5259259259259259,0.23981481481481481,1,0,0,one_red_dot,50.73848870000802,50.75142929999856,51.75356009999814,51.734313000008115,,,,1 - DUAL,001,2026-05-05_11h12.45.628,Wisconsin Card Sorting Task,,2025.1.1,60.02159576864687,2026-05-05 11h13.06.276739 +0200,
colour.xlsx,0,0,0,,,,,,,,,,0,0,0,1,,,,,,,,,,,,,,,,,,,,,,,,,,,,,,,,,,,,,,,,,,,,,,,,,,,1 - DUAL,001,2026-05-05_11h12.45.628,Wisconsin Card Sorting Task,,2025.1.1,60.02159576864687,2026-05-05 11h13.06.276739 +0200,
number.xlsx,0,0,0,number,images/1yellowTriangle.JPG,images/1redDot.JPG,-0.1925925925925926,0.23055555555555557,1,0,0,two_yellow_triangles,0,1,1,2,0,0,0,52,51.75356009999814,,,,,,,,,,,,,,,,,,,,,,51.75113820000843,51.75356009999814,51.75356009999814,51.75356009999814,51.75356009999814,51.75356009999814,52.74991559999762,52.76678430000902,1.0116464000020642,0,54.384814999997616,-0.1925925925925926,0.23055555555555557,1,0,0,two_yellow_triangles,54.38681360000919,54.3983353000076,55.398053800003254,55.381466899998486,,,,1 - DUAL,001,2026-05-05_11h12.45.628,Wisconsin Card Sorting Task,,2025.1.1,60.02159576864687,2026-05-05 11h13.06.276739 +0200,
number.xlsx,1,1,0,number,images/3blueDots.JPG,images/3greenCrosses.JPG,0.14166666666666666,0.19722222222222222,1,0,0,three_green_crosses,0,1,1,2,0,1,1,14,55.398053800003254,,,,,,,,,,,,,,,,,,,,,,55.38888759999827,55.398053800003254,55.398053800003254,55.398053800003254,55.398053800003254,55.398053800003254,56.39699780000956,56.39699780000956,1.0121129999897676,1,61.72780750000675,0.14166666666666666,0.19722222222222222,1,0,0,three_green_crosses,61.72974260000046,61.742467200005194,62.74206950000371,62.7251016000082,,,,1 - DUAL,001,2026-05-05_11h12.45.628,Wisconsin Card Sorting Task,,2025.1.1,60.02159576864687,2026-05-05 11h13.06.276739 +0200,
number.xlsx,2,2,0,number,images/2redDots.jpg,images/2yellowTriangles.JPG,-0.19074074074074074,0.18425925925925926,1,0,0,two_yellow_triangles,0,1,1,2,0,2,2,1,62.74206950000371,,,,,,,,,,,,,,,,,,,,,,62.73241670000425,62.74206950000371,62.74206950000371,62.74206950000371,62.74206950000371,62.74206950000371,63.74106210000173,63.75765240000328,1.0130967999866698,1,64.69575240000268,-0.19074074074074074,0.18425925925925926,1,0,0,two_yellow_triangles,64.6960481999995,64.70664180000313,65.70624680000765,65.68946829999913,,,,1 - DUAL,001,2026-05-05_11h12.45.628,Wisconsin Card Sorting Task,,2025.1.1,60.02159576864687,2026-05-05 11h13.06.276739 +0200,
number.xlsx,3,3,0,number,images/2greenCrosses.JPG,images/2yellowTriangles.JPG,-0.19074074074074074,0.18425925925925926,1,0,0,two_yellow_triangles,0,1,1,2,0,3,3,25,65.70624680000765,,,,,,,,,,,,,,,,,,,,,,65.69603839999763,65.70624680000765,65.70624680000765,65.70624680000765,65.70624680000765,65.70624680000765,66.70529050000187,66.72179070000129,1.0094180000014603,1,68.67533359999652,-0.19074074074074074,0.18425925925925926,1,0,0,two_yellow_triangles,68.67561230000865,68.68666500000108,69.68836890000966,69.66951040001004,,,,1 - DUAL,001,2026-05-05_11h12.45.628,Wisconsin Card Sorting Task,,2025.1.1,60.02159576864687,2026-05-05 11h13.06.276739 +0200,
number.xlsx,4,4,0,number,images/1blueTriangle.JPG,images/1redDot.JPG,-0.37777777777777777,0.21388888888888888,1,0,0,one_red_dot,0,1,1,2,0,4,4,60,69.68836890000966,,,,,,,,,,,,,,,,,,,,,,69.68575430000783,69.68836890000966,69.68836890000966,69.68836890000966,69.68836890000966,69.68836890000966,70.68535300000804,70.70184449999942,1.0098618000047281,1,71.87065620000067,-0.37777777777777777,0.21388888888888888,1,0,0,one_red_dot,71.87091740001051,71.88391150000098,72.88379740000528,72.86687579999852,,,,1 - DUAL,001,2026-05-05_11h12.45.628,Wisconsin Card Sorting Task,,2025.1.1,60.02159576864687,2026-05-05 11h13.06.276739 +0200,
number.xlsx,5,5,0,number,images/2yellowTriangles.JPG,images/2yellowTriangles.JPG,-0.19722222222222222,0.20277777777777778,1,0,0,two_yellow_triangles,0,1,1,2,0,5,5,53,72.88379740000528,,,,,,,,,,,,,,,,,,,,,,72.87406550000014,72.88379740000528,72.88379740000528,72.88379740000528,72.88379740000528,72.88379740000528,73.88277240000025,73.89928959999816,1.0120475000003353,1,76.25112980000267,-0.19722222222222222,0.20277777777777778,1,0,0,two_yellow_triangles,76.25135700000101,76.26362179999705,77.2634825999994,77.24674490001053,,,,1 - DUAL,001,2026-05-05_11h12.45.628,Wisconsin Card Sorting Task,,2025.1.1,60.02159576864687,2026-05-05 11h13.06.276739 +0200,
number.xlsx,6,6,0,number,images/1yellowDot.jpg,images/1redDot.JPG,-0.5009259259259259,0.1787037037037037,1,0,0,one_red_dot,0,1,1,2,0,6,6,4,77.2634825999994,,,,,,,,,,,,,,,,,,,,,,77.25297709999722,77.2634825999994,77.2634825999994,77.2634825999994,77.2634825999994,77.2634825999994,78.26234090000798,78.27903669999796,1.0111965999967651,1,79.31669839999813,-0.5009259259259259,0.1787037037037037,1,0,0,one_red_dot,79.3169440000056,79.32781339999929,80.33228750000126,80.31059809999715,,,,1 - DUAL,001,2026-05-05_11h12.45.628,Wisconsin Card Sorting Task,,2025.1.1,60.02159576864687,2026-05-05 11h13.06.276739 +0200,
number.xlsx,1,1,0,,,,,,,,,,0,1,1,2,,,,,,,,,,,,,,,,,,,,,,,,,,,,,,,,,,,,,,,,,,,,,,,,,,,1 - DUAL,001,2026-05-05_11h12.45.628,Wisconsin Card Sorting Task,,2025.1.1,60.02159576864687,2026-05-05 11h13.06.276739 +0200,
shape.xlsx,0,0,0,shape,images/4blueDots.jpg,images/1redDot.JPG,0.40925925925925927,0.22037037037037038,1,0,0,four_blue_stars,0,2,2,0,0,0,0,15,80.33228750000126,,,,,,,,,,,,,,,,,,,,,,80.32967940000526,80.33228750000126,80.33228750000126,80.33228750000126,80.33228750000126,80.33228750000126,81.32652480000979,81.34318280000298,1.0097763999947347,0,82.79467800000566,0.40925925925925927,0.22037037037037038,1,0,0,four_blue_stars,82.79649839999911,82.80814570000803,83.80776450000121,83.79122900000948,,,,1 - DUAL,001,2026-05-05_11h12.45.628,Wisconsin Card Sorting Task,,2025.1.1,60.02159576864687,2026-05-05 11h13.06.276739 +0200,
shape.xlsx,1,1,0,shape,images/2blueDots.jpg,images/1redDot.JPG,-0.43333333333333335,0.2074074074074074,1,0,0,one_red_dot,0,2,2,0,0,1,1,13,83.80776450000121,,,,,,,,,,,,,,,,,,,,,,83.79866220000258,83.80776450000121,83.80776450000121,83.80776450000121,83.80776450000121,83.80776450000121,84.8069445000001,84.8069445000001,1.0121769000106724,1,100.59602260000247,-0.43333333333333335,0.2074074074074074,1,0,0,one_red_dot,100.5978357999993,100.6103879000002,101.61012589999882,101.59330249999766,,,,1 - DUAL,001,2026-05-05_11h12.45.628,Wisconsin Card Sorting Task,,2025.1.1,60.02159576864687,2026-05-05 11h13.06.276739 +0200,
shape.xlsx,2,2,0,shape,images/2yellowCrosses.JPG,images/3greenCrosses.JPG,0.15462962962962962,0.21574074074074073,1,0,0,three_green_crosses,0,2,2,0,0,2,2,21,101.61012589999882,,,,,,,,,,,,,,,,,,,,,,101.60232410000754,101.61012589999882,101.61012589999882,101.61012589999882,101.61012589999882,101.61012589999882,102.60909070000343,102.62565250000625,1.013009799993597,1,105.94314109999686,0.15462962962962962,0.21574074074074073,1,0,0,three_green_crosses,105.94340270000976,105.95608580000408,106.95569010000327,106.93886599999678,,,,1 - DUAL,001,2026-05-05_11h12.45.628,Wisconsin Card Sorting Task,,2025.1.1,60.02159576864687,2026-05-05 11h13.06.276739 +0200,
shape.xlsx,3,3,0,shape,images/2greenTriangles.JPG,images/2yellowTriangles.JPG,-0.12777777777777777,0.22870370370370371,1,0,0,two_yellow_triangles,0,2,2,0,0,3,3,57,106.95569010000327,,,,,,,,,,,,,,,,,,,,,,106.94632240000647,106.95569010000327,106.95569010000327,106.95569010000327,106.95569010000327,106.95569010000327,107.95457030000398,107.9714929000038,1.0113084000040544,1,109.07297760000802,-0.12777777777777777,0.22870370370370371,1,0,0,two_yellow_triangles,109.07323720000568,109.08707439999853,110.08641720000014,110.06976399999985,,,,1 - DUAL,001,2026-05-05_11h12.45.628,Wisconsin Card Sorting Task,,2025.1.1,60.02159576864687,2026-05-05 11h13.06.276739 +0200,
shape.xlsx,4,4,0,shape,images/1blueTriangle.JPG,images/2yellowTriangles.JPG,-0.12777777777777777,0.22870370370370371,1,0,0,two_yellow_triangles,0,2,2,0,0,4,4,60,110.08641720000014,,,,,,,,,,,,,,,,,,,,,,110.07788029999938,110.08641720000014,110.08641720000014,110.08641720000014,110.08641720000014,110.08641720000014,111.08531560000847,111.10208680000505,1.012218199990457,1,112.48692380001012,-0.12777777777777777,0.22870370370370371,1,0,0,two_yellow_triangles,112.48718280000321,112.50070410000626,113.50019000000611,113.483653400006,,,,1 - DUAL,001,2026-05-05_11h12.45.628,Wisconsin Card Sorting Task,,2025.1.1,60.02159576864687,2026-05-05 11h13.06.276739 +0200,
shape.xlsx,5,5,0,shape,images/4blueTriangles.JPG,images/2yellowTriangles.JPG,-0.12777777777777777,0.22870370370370371,1,0,0,two_yellow_triangles,0,2,2,0,0,5,5,63,113.50019000000611,,,,,,,,,,,,,,,,,,,,,,113.49672150000697,113.50019000000611,113.50019000000611,113.50019000000611,113.50019000000611,113.50019000000611,114.4991286000004,114.4991286000004,1.0120590000005905,1,116.18554120000044,-0.12777777777777777,0.22870370370370371,1,0,0,two_yellow_triangles,116.18579380000301,116.19766410000739,117.19728200000827,117.18037860000913,,,,1 - DUAL,001,2026-05-05_11h12.45.628,Wisconsin Card Sorting Task,,2025.1.1,60.02159576864687,2026-05-05 11h13.06.276739 +0200,
shape.xlsx,6,6,0,shape,images/3greenStars.JPG,images/4blueStars.JPG,0.412962962962963,0.27314814814814814,1,0,0,four_blue_stars,0,2,2,0,0,6,6,42,117.19728200000827,,,,,,,,,,,,,,,,,,,,,,117.18865809999988,117.19728200000827,117.19728200000827,117.19728200000827,117.19728200000827,117.19728200000827,118.19620620000933,118.21288669999922,1.010515599991777,1,120.23500490000879,0.412962962962963,0.27314814814814814,1,0,0,four_blue_stars,120.2352799000073,120.24438129999908,121.24777470000845,121.22717630000261,,,,1 - DUAL,001,2026-05-05_11h12.45.628,Wisconsin Card Sorting Task,,2025.1.1,60.02159576864687,2026-05-05 11h13.06.276739 +0200,
shape.xlsx,2,2,0,,,,,,,,,,0,2,2,0,,,,,,,,,,,,,,,,,,,,,,,,,,,,,,,,,,,,,,,,,,,,,,,,,,,1 - DUAL,001,2026-05-05_11h12.45.628,Wisconsin Card Sorting Task,,2025.1.1,60.02159576864687,2026-05-05 11h13.06.276739 +0200,
colour.xlsx,0,0,0,colour,images/2yellowStars.JPG,images/2yellowTriangles.JPG,0.47685185185185186,0.2212962962962963,1,0,0,four_blue_stars,1,0,3,1,0,0,0,37,121.24777470000845,,,,,,,,,,,,,,,,,,,,,,121.24574050000228,121.24777470000845,121.24777470000845,121.24777470000845,121.24777470000845,121.24777470000845,122.24290520000795,122.25964730000123,1.0079484000016237,0,124.03023030000622,0.47685185185185186,0.2212962962962963,1,0,0,four_blue_stars,124.0320056000055,124.04111810000904,125.04090510000242,125.02398810000159,,,,1 - DUAL,001,2026-05-05_11h12.45.628,Wisconsin Card Sorting Task,,2025.1.1,60.02159576864687,2026-05-05 11h13.06.276739 +0200,
colour.xlsx,1,1,0,colour,images/3redStars.JPG,images/1redDot.JPG,-0.42685185185185187,0.23796296296296296,1,0,0,one_red_dot,1,0,3,1,0,1,1,34,125.04090510000242,,,,,,,,,,,,,,,,,,,,,,125.03139630000805,125.04090510000242,125.04090510000242,125.04090510000242,125.04090510000242,125.04090510000242,126.0398511000094,126.05638160000672,1.0095641000079922,1,135.28527680000116,-0.42685185185185187,0.23796296296296296,1,0,0,one_red_dot,135.28745940000226,135.2986205000052,136.29816340000252,136.2816090999986,,,,1 - DUAL,001,2026-05-05_11h12.45.628,Wisconsin Card Sorting Task,,2025.1.1,60.02159576864687,2026-05-05 11h13.06.276739 +0200,
colour.xlsx,2,2,0,colour,images/4yellowTriangles.JPG,images/2yellowTriangles.JPG,-0.19166666666666668,0.24074074074074073,1,0,0,two_yellow_triangles,1,0,3,1,0,2,2,55,136.29816340000252,,,,,,,,,,,,,,,,,,,,,,136.2892736000067,136.29816340000252,136.29816340000252,136.29816340000252,136.29816340000252,136.29816340000252,137.29724840000563,137.29724840000563,1.0118318000022555,1,138.915677099998,-0.19166666666666668,0.24074074074074073,1,0,0,two_yellow_triangles,138.9159645000036,138.9291346999962,,139.9285385999974,,,,1 - DUAL,001,2026-05-05_11h12.45.628,Wisconsin Card Sorting Task,,2025.1.1,60.02159576864687,2026-05-05 11h13.06.276739 +0200,
colour.xlsx,3,3,0,colour,images/2greenCrosses.JPG,images/3greenCrosses.JPG,0.12962962962962962,0.2518518518518518,1,0,0,three_green_crosses,1,0,3,1,0,3,3,25,139.94522950000828,,,,,,,,,,,,,,,,,,,,,,139.93520449999778,139.94522950000828,139.94522950000828,139.94522950000828,139.94522950000828,139.94522950000828,140.92765409999993,140.94404740000027,1.0118267000070773,1,142.69556690000172,0.12962962962962962,0.2518518518518518,1,0,0,three_green_crosses,142.6958078000025,142.7093542000075,,143.70861380000133,,,,1 - DUAL,001,2026-05-05_11h12.45.628,Wisconsin Card Sorting Task,,2025.1.1,60.02159576864687,2026-05-05 11h13.06.276739 +0200,
colour.xlsx,4,4,0,colour,images/1yellowStar.JPG,images/2yellowTriangles.JPG,-0.1712962962962963,0.24444444444444444,1,0,0,two_yellow_triangles,1,0,3,1,0,4,4,36,143.72541850000562,,,,,,,,,,,,,,,,,,,,,,143.71742300000915,143.72541850000562,143.72541850000562,143.72541850000562,143.72541850000562,143.72541850000562,144.7077072000102,144.74099459999707,1.0121402000077069,1,146.94314270000905,-0.1712962962962963,0.24444444444444444,1,0,0,two_yellow_triangles,146.94345530000282,146.9555330000003,147.95526470000914,147.9383600000001,,,,1 - DUAL,001,2026-05-05_11h12.45.628,Wisconsin Card Sorting Task,,2025.1.1,60.02159576864687,2026-05-05 11h13.06.276739 +0200,
colour.xlsx,5,5,0,colour,images/2greenDots.jpg,images/3greenCrosses.JPG,0.15,0.2824074074074074,1,0,0,three_green_crosses,1,0,3,1,0,5,5,9,147.95526470000914,,,,,,,,,,,,,,,,,,,,,,147.9461267000006,147.95526470000914,147.95526470000914,147.95526470000914,147.95526470000914,147.95526470000914,148.95430979999946,148.97076130000642,1.0109782999934396,1,150.2085844000103,0.15,0.2824074074074074,1,0,0,three_green_crosses,150.20882480000728,150.21947530000762,151.21934710000642,151.20241740001075,,,,1 - DUAL,001,2026-05-05_11h12.45.628,Wisconsin Card Sorting Task,,2025.1.1,60.02159576864687,2026-05-05 11h13.06.276739 +0200,
colour.xlsx,6,6,0,colour,images/3redTriangles.JPG,images/1redDot.JPG,-0.4203703703703704,0.24722222222222223,1,0,0,one_red_dot,1,0,3,1,0,6,6,50,151.21934710000642,,,,,,,,,,,,,,,,,,,,,,151.21152840000286,151.21934710000642,151.21934710000642,151.21934710000642,151.21934710000642,151.21934710000642,152.21821560000535,152.23485020000953,1.0095004000031622,1,154.23731890000636,-0.4203703703703704,0.24722222222222223,1,0,0,one_red_dot,154.23757630000182,154.24959110000054,155.2518398000102,155.23267670000496,,,,1 - DUAL,001,2026-05-05_11h12.45.628,Wisconsin Card Sorting Task,,2025.1.1,60.02159576864687,2026-05-05 11h13.06.276739 +0200,
colour.xlsx,3,0,1,,,,,,,,,,1,0,3,1,,,,,,,,,,,,,,,,,,,,,,,,,,,,,,,,,,,,,,,,,,,,,,,,,,,1 - DUAL,001,2026-05-05_11h12.45.628,Wisconsin Card Sorting Task,,2025.1.1,60.02159576864687,2026-05-05 11h13.06.276739 +0200,
shape.xlsx,0,0,0,shape,images/1greenTriangle.JPG,images/2yellowTriangles.JPG,0.12777777777777777,0.25,1,0,0,three_green_crosses,1,1,4,0,0,0,0,56,155.2518398000102,,,,,,,,,,,,,,,,,,,,,,155.24930460000178,155.2518398000102,155.2518398000102,155.2518398000102,155.2518398000102,155.2518398000102,156.2479871000105,156.26520080000046,1.0106094000075245,0,157.28711220000696,0.12777777777777777,0.25,1,0,0,three_green_crosses,157.2890822000045,157.29704669999774,158.29660120001063,158.28012750000926,,,,1 - DUAL,001,2026-05-05_11h12.45.628,Wisconsin Card Sorting Task,,2025.1.1,60.02159576864687,2026-05-05 11h13.06.276739 +0200,
shape.xlsx,1,1,0,shape,images/4greenCrosses.JPG,images/3greenCrosses.JPG,0.40555555555555556,0.2722222222222222,1,0,0,four_blue_stars,1,1,4,0,0,1,1,27,158.29660120001063,,,,,,,,,,,,,,,,,,,,,,158.28979320000508,158.29660120001063,158.29660120001063,158.29660120001063,158.29660120001063,158.29660120001063,159.2956256000034,159.2956256000034,1.0086046999931568,0,162.0966890999989,0.40555555555555556,0.2722222222222222,1,0,0,four_blue_stars,162.0969325000042,162.10968200000934,163.10946469999908,163.09275460000208,,,,1 - DUAL,001,2026-05-05_11h12.45.628,Wisconsin Card Sorting Task,,2025.1.1,60.02159576864687,2026-05-05 11h13.06.276739 +0200,
shape.xlsx,2,2,0,shape,images/2blueStars.JPG,images/4blueStars.JPG,0.40555555555555556,0.2722222222222222,1,0,0,four_blue_stars,1,1,4,0,0,2,2,45,163.10946469999908,,,,,,,,,,,,,,,,,,,,,,163.10331340000266,163.10946469999908,163.10946469999908,163.10946469999908,163.10946469999908,163.10946469999908,164.10841909999726,164.12519910000265,1.012158699988504,1,168.1399839000078,0.40555555555555556,0.2722222222222222,1,0,0,four_blue_stars,168.14224480000848,168.15495779999765,169.1545383000048,169.1375440999982,,,,1 - DUAL,001,2026-05-05_11h12.45.628,Wisconsin Card Sorting Task,,2025.1.1,60.02159576864687,2026-05-05 11h13.06.276739 +0200,
shape.xlsx,3,3,0,shape,images/2greenStars.JPG,images/4blueStars.JPG,0.40555555555555556,0.2722222222222222,1,0,0,four_blue_stars,1,1,4,0,0,3,3,41,169.1545383000048,,,,,,,,,,,,,,,,,,,,,,169.14705140001024,169.1545383000048,169.1545383000048,169.1545383000048,169.1545383000048,169.1545383000048,170.15333060000557,170.17023670001072,1.0132222999964142,1,171.43774819999817,0.40555555555555556,0.2722222222222222,1,0,0,four_blue_stars,171.4379944000102,171.45213750000403,172.45180940000864,172.43482290000247,,,,1 - DUAL,001,2026-05-05_11h12.45.628,Wisconsin Card Sorting Task,,2025.1.1,60.02159576864687,2026-05-05 11h13.06.276739 +0200,
shape.xlsx,4,4,0,shape,images/1yellowStar.JPG,images/4blueStars.JPG,0.40555555555555556,0.2722222222222222,1,0,0,four_blue_stars,1,1,4,0,0,4,4,36,172.45180940000864,,,,,,,,,,,,,,,,,,,,,,172.44168309999804,172.45180940000864,172.45180940000864,172.45180940000864,172.45180940000864,172.45180940000864,173.45080790000793,173.46745779999765,1.0130176000093343,1,175.88423450000118,0.40555555555555556,0.2722222222222222,1,0,0,four_blue_stars,175.8846043000085,175.89847960000043,176.89814830000978,176.88151930000458,,,,1 - DUAL,001,2026-05-05_11h12.45.628,Wisconsin Card Sorting Task,,2025.1.1,60.02159576864687,2026-05-05 11h13.06.276739 +0200,
shape.xlsx,5,5,0,shape,images/3yellowStars.JPG,images/4blueStars.JPG,0.40555555555555556,0.2722222222222222,1,0,0,four_blue_stars,1,1,4,0,0,5,5,38,176.89814830000978,,,,,,,,,,,,,,,,,,,,,,176.8888319999969,176.89814830000978,176.89814830000978,176.89814830000978,176.89814830000978,176.89814830000978,177.89716829999816,177.9137982000102,1.01282469999569,1,179.76774940000905,0.40555555555555556,0.2722222222222222,1,0,0,four_blue_stars,179.76801500000875,179.77863450000586,180.77821460000996,180.76136840000981,,,,1 - DUAL,001,2026-05-05_11h12.45.628,Wisconsin Card Sorting Task,,2025.1.1,60.02159576864687,2026-05-05 11h13.06.276739 +0200,
shape.xlsx,6,6,0,shape,images/3yellowDots.JPG,images/1redDot.JPG,-0.5,0.3,1,0,0,one_red_dot,1,1,4,0,0,6,6,6,180.77821460000996,,,,,,,,,,,,,,,,,,,,,,180.77413649999653,180.77821460000996,180.77821460000996,180.77821460000996,180.77821460000996,180.77821460000996,181.7771999000106,181.7771999000106,1.0094517999968957,1,184.04703729999892,-0.5,0.3,1,0,0,one_red_dot,184.04730250001012,184.05843200000527,185.05967440000677,185.04128230000788,,,,1 - DUAL,001,2026-05-05_11h12.45.628,Wisconsin Card Sorting Task,,2025.1.1,60.02159576864687,2026-05-05 11h13.06.276739 +0200,
shape.xlsx,4,1,1,,,,,,,,,,1,1,4,0,,,,,,,,,,,,,,,,,,,,,,,,,,,,,,,,,,,,,,,,,,,,,,,,,,,1 - DUAL,001,2026-05-05_11h12.45.628,Wisconsin Card Sorting Task,,2025.1.1,60.02159576864687,2026-05-05 11h13.06.276739 +0200,
number.xlsx,0,0,0,number,images/2blueDots.jpg,images/2yellowTriangles.JPG,-0.5,0.3,1,0,0,one_red_dot,1,2,5,2,0,0,0,13,185.05967440000677,,,,,,,,,,,,,,,,,,,,,,185.05738169999677,185.05967440000677,185.05967440000677,185.05967440000677,185.05967440000677,185.05967440000677,186.05713600000308,186.0735055999976,1.010058800005936,0,187.06081029999768,-0.5,0.3,1,0,0,one_red_dot,187.06266640000104,187.07262220000848,188.0722958999977,188.0557345999987,,,,1 - DUAL,001,2026-05-05_11h12.45.628,Wisconsin Card Sorting Task,,2025.1.1,60.02159576864687,2026-05-05 11h13.06.276739 +0200,
number.xlsx,1,1,0,number,images/3blueTriangles.JPG,images/3greenCrosses.JPG,0.39537037037037037,0.3212962962962963,1,0,0,four_blue_stars,1,2,5,2,0,1,1,62,188.0722958999977,,,,,,,,,,,,,,,,,,,,,,188.06306620000396,188.0722958999977,188.0722958999977,188.0722958999977,188.0722958999977,188.0722958999977,189.0713065000018,189.0713065000018,1.0106741000054171,0,197.36867170000914,0.39537037037037037,0.3212962962962963,1,0,0,four_blue_stars,197.36892049999733,197.38087020000967,198.38046139999642,198.36371459999646,,,,1 - DUAL,001,2026-05-05_11h12.45.628,Wisconsin Card Sorting Task,,2025.1.1,60.02159576864687,2026-05-05 11h13.06.276739 +0200,
number.xlsx,2,2,0,number,images/2redCrosses.JPG,images/2yellowTriangles.JPG,-0.10092592592592593,0.2814814814814815,1,0,0,two_yellow_triangles,1,2,5,2,0,2,2,17,198.38046139999642,,,,,,,,,,,,,,,,,,,,,,198.3731337000063,198.38046139999642,198.38046139999642,198.38046139999642,198.38046139999642,198.38046139999642,199.37952780000342,199.3962215000065,1.0107537000003504,1,200.9805505999975,-0.10092592592592593,0.2814814814814815,1,0,0,two_yellow_triangles,200.9824920999963,200.99446929999976,201.99417030000768,201.97740380000323,,,,1 - DUAL,001,2026-05-05_11h12.45.628,Wisconsin Card Sorting Task,,2025.1.1,60.02159576864687,2026-05-05 11h13.06.276739 +0200,
number.xlsx,3,3,0,number,images/4redCrosses.JPG,images/4blueStars.JPG,0.35462962962962963,0.2824074074074074,1,0,0,four_blue_stars,1,2,5,2,0,3,3,19,201.99417030000768,,,,,,,,,,,,,,,,,,,,,,201.98660220000602,201.99417030000768,201.99417030000768,201.99417030000768,201.99417030000768,201.99417030000768,202.99313090000942,202.99313090000942,1.012581400005729,1,204.79501529999834,0.35462962962962963,0.2824074074074074,1,0,0,four_blue_stars,204.79527800000506,204.8085989000101,,205.8073646999983,,,,1 - DUAL,001,2026-05-05_11h12.45.628,Wisconsin Card Sorting Task,,2025.1.1,60.02159576864687,2026-05-05 11h13.06.276739 +0200,
number.xlsx,4,4,0,number,images/2greenDots.jpg,images/2yellowTriangles.JPG,-0.05185185185185185,0.30092592592592593,1,0,0,two_yellow_triangles,1,2,5,2,0,4,4,9,205.8243242000026,,,,,,,,,,,,,,,,,,,,,,205.81601190000947,205.8243242000026,205.8243242000026,205.8243242000026,205.8243242000026,205.8243242000026,206.8066789000004,206.82335130000138,1.0115092999913031,1,207.87766260000353,-0.05185185185185185,0.30092592592592593,1,0,0,two_yellow_triangles,207.87790960000711,207.888915500007,208.88854210000136,208.87177270000393,,,,1 - DUAL,001,2026-05-05_11h12.45.628,Wisconsin Card Sorting Task,,2025.1.1,60.02159576864687,2026-05-05 11h13.06.276739 +0200,
number.xlsx,5,5,0,number,images/3redTriangles.JPG,images/3greenCrosses.JPG,0.14814814814814814,0.29814814814814816,1,0,0,three_green_crosses,1,2,5,2,0,5,5,50,208.88854210000136,,,,,,,,,,,,,,,,,,,,,,208.87904379999964,208.88854210000136,208.88854210000136,208.88854210000136,208.88854210000136,208.88854210000136,209.88750260000234,209.9040731999994,1.0097372000018368,1,210.9728052999999,0.14814814814814814,0.29814814814814816,1,0,0,three_green_crosses,210.9730472000083,210.98624050000217,211.98596089999774,211.9692769000103,,,,1 - DUAL,001,2026-05-05_11h12.45.628,Wisconsin Card Sorting Task,,2025.1.1,60.02159576864687,2026-05-05 11h13.06.276739 +0200,
number.xlsx,6,6,0,number,images/1blueStar.JPG,images/1redDot.JPG,-0.44166666666666665,0.3212962962962963,1,0,0,one_red_dot,1,2,5,2,0,6,6,44,211.98596089999774,,,,,,,,,,,,,,,,,,,,,,211.97715459999745,211.98596089999774,211.98596089999774,211.98596089999774,211.98596089999774,211.98596089999774,212.98484460001055,213.00159690000874,1.0121532000048319,1,214.35357960000692,-0.44166666666666665,0.3212962962962963,1,0,0,one_red_dot,214.35389310000755,214.36680460000935,215.36608990000968,215.34984049999912,,,,1 - DUAL,001,2026-05-05_11h12.45.628,Wisconsin Card Sorting Task,,2025.1.1,60.02159576864687,2026-05-05 11h13.06.276739 +0200,
number.xlsx,5,2,1,,,,,,,,,,1,2,5,2,,,,,,,,,,,,,,,,,,,,,,,,,,,,,,,,,,,,,,,,,,,,,,,,,,,1 - DUAL,001,2026-05-05_11h12.45.628,Wisconsin Card Sorting Task,,2025.1.1,60.02159576864687,2026-05-05 11h13.06.276739 +0200,
,,,,,,,,,,,,,,,,,,,,,,,,,,,,,,,,,,,,,,,,,,,,,,,,,,,,,,,,,,,,,,,,215.3536718000105,215.36608990000968,218.36363730000448,1 - DUAL,001,2026-05-05_11h12.45.628,Wisconsin Card Sorting Task,,2025.1.1,60.02159576864687,2026-05-05 11h13.06.276739 +0200,
