stimulus,sound_file,letter_isTarget,sound_isTarget,dual_target,thisN,thisTrialN,thisRepN,key_resp_2.keys,key_resp_2.corr,key_resp_2.rt,key_resp_2.duration,cond_file,key_resp.keys,key_resp.corr,key_resp.rt,key_resp.duration,RSME_ticks.response,RSME_ticks.rt,button_next_11.numClicks,button_next_11.timesOn,button_next_11.timesOff,practice_trials.thisRepN,practice_trials.thisTrialN,practice_trials.thisN,practice_trials.thisIndex,blocs_loops.thisRepN,blocs_loops.thisTrialN,blocs_loops.thisN,blocs_loops.thisIndex,sequence_of_trials_X3.thisRepN,sequence_of_trials_X3.thisTrialN,sequence_of_trials_X3.thisN,sequence_of_trials_X3.thisIndex,trials_X50.thisRepN,trials_X50.thisTrialN,trials_X50.thisN,trials_X50.thisIndex,thisRow.t,notes,INIT_LSL.started,text_init.started,text_init.stopped,INIT_LSL.stopped,init.started,text_6.started,key_resp_5.started,init.stopped,key_resp_5.keys,key_resp_5.rt,key_resp_5.duration,instructions.started,text_5.started,key_resp_3.started,instructions.stopped,key_resp_3.keys,key_resp_3.rt,key_resp_3.duration,practice_trial.started,key_resp_2.started,feedback_text.started,text_2.started,text_2.stopped,practice_trial.stopped,practice_trials.key_resp_2.keys,practice_trials.key_resp_2.corr,practice_trials.key_resp_2.rt,practice_trials.key_resp_2.duration,instructions_finale.started,text_4.started,key_resp_4.started,instructions_finale.stopped,key_resp_4.keys,key_resp_4.rt,key_resp_4.duration,trial.started,key_resp.started,text.started,trial.stopped,trials_X50.key_resp.keys,trials_X50.key_resp.corr,trials_X50.key_resp.rt,trials_X50.key_resp.duration,text.stopped,KSS_POST_BLOCK.started,RSME_labels.started,RSME_ticks.started,RSME_text.started,answer1_text.started,button_next_11.started,KSS_POST_BLOCK.stopped,blocs_loops.RSME_ticks.response,blocs_loops.RSME_ticks.rt,blocs_loops.button_next_11.numClicks,blocs_loops.button_next_11.timesOn,blocs_loops.button_next_11.timesOff,merci.started,text_7.started,text_7.stopped,merci.stopped,participant,session,date,expName,expVersion,psychopyVersion,frameRate,expStart,
,,,,,,,,,,,,,,,,,,,,,,,,,,,,,,,,,,,,,,,,0.0012888999772258103,0.003140099986921996,1.0026060999953188,0.9862090999959037,,,,,,,,,,,,,,,,,,,,,,,,,,,,,,,,,,,,,,,,,,,,,,,,,,,,,,,,,3,001,2026-04-27_13h22.42.254,untitled,,2025.1.1,60.07849856245955,2026-04-27 13h22.53.195997 +0200,
,,,,,,,,,,,,,,,,,,,,,,,,,,,,,,,,,,,,,,,,,,,,0.9862461999873631,1.0026060999953188,1.0026060999953188,55.41209199998411,space,54.392330100003164,None,,,,,,,,,,,,,,,,,,,,,,,,,,,,,,,,,,,,,,,,,,,,,,,,,,3,001,2026-04-27_13h22.42.254,untitled,,2025.1.1,60.07849856245955,2026-04-27 13h22.53.195997 +0200,
,,,,,,,,,,,,,,,,,,,,,,,,,,,,,,,,,,,,,,,,,,,,,,,,,,,55.412124599999515,55.424395699985325,55.424395699985325,57.889224499987904,space,2.4604481999995187,None,,,,,,,,,,,,,,,,,,,,,,,,,,,,,,,,,,,,,,,,,,,3,001,2026-04-27_13h22.42.254,untitled,,2025.1.1,60.07849856245955,2026-04-27 13h22.53.195997 +0200,
L,1.wav,0,0,0,0,0,0,None,1,,,,,,,,,,,,,0,0,0,0,,,,,,,,,,,,,57.905581700004404,,,,,,,,,,,,,,,,,,,,57.90059839998139,57.905581700004404,57.905581700004404,58.388743399991654,59.904032599995844,59.90420190000441,None,1,,,,,,,,,,,,,,,,,,,,,,,,,,,,,,,,,,,3,001,2026-04-27_13h22.42.254,untitled,,2025.1.1,60.07849856245955,2026-04-27 13h22.53.195997 +0200,
M,2.wav,0,0,0,1,1,0,None,1,,,,,,,,,,,,,0,1,1,1,,,,,,,,,,,,,59.92066039997735,,,,,,,,,,,,,,,,,,,,59.9074685999949,59.92066039997735,59.92066039997735,60.403762000001734,,61.902957199985394,None,1,,,,,,,,,,,,,,,,,,,,,,,,,,,,,,,,,,,3,001,2026-04-27_13h22.42.254,untitled,,2025.1.1,60.07849856245955,2026-04-27 13h22.53.195997 +0200,
L,1.wav,1,1,1,2,2,0,space,1,1.1386708999925759,0.10234620000119321,,,,,,,,,,,0,2,2,2,,,,,,,,,,,,,61.91895530000329,,,,,,,,,,,,,,,,,,,,61.90458289999515,61.91895530000329,61.91895530000329,62.402129800000694,,63.90102629998,space,1,1.1386708999925759,0.10234620000119321,,,,,,,,,,,,,,,,,,,,,,,,,,,,,,,,,3,001,2026-04-27_13h22.42.254,untitled,,2025.1.1,60.07849856245955,2026-04-27 13h22.53.195997 +0200,
B,8.wav,0,0,0,3,3,0,None,1,,,,,,,,,,,,,0,3,3,3,,,,,,,,,,,,,63.917445700004464,,,,,,,,,,,,,,,,,,,,63.90266829999746,63.917445700004464,63.917445700004464,64.40035349997925,,65.8993921999936,None,1,,,,,,,,,,,,,,,,,,,,,,,,,,,,,,,,,,,3,001,2026-04-27_13h22.42.254,untitled,,2025.1.1,60.07849856245955,2026-04-27 13h22.53.195997 +0200,
G,3.wav,0,0,0,4,4,0,None,1,,,,,,,,,,,,,0,4,4,4,,,,,,,,,,,,,65.91574120000587,,,,,,,,,,,,,,,,,,,,65.90399880000041,65.91574120000587,65.91574120000587,66.39870150000206,,67.89771309998468,None,1,,,,,,,,,,,,,,,,,,,,,,,,,,,,,,,,,,,3,001,2026-04-27_13h22.42.254,untitled,,2025.1.1,60.07849856245955,2026-04-27 13h22.53.195997 +0200,
B,2.wav,1,0,0,5,5,0,space,1,1.2064891000045463,0.12568430000101216,,,,,,,,,,,0,5,5,5,,,,,,,,,,,,,67.91399760000058,,,,,,,,,,,,,,,,,,,,67.89924929998233,67.91399760000058,67.91399760000058,68.39722409998649,,69.89607309998246,space,1,1.2064891000045463,0.12568430000101216,,,,,,,,,,,,,,,,,,,,,,,,,,,,,,,,,3,001,2026-04-27_13h22.42.254,untitled,,2025.1.1,60.07849856245955,2026-04-27 13h22.53.195997 +0200,
F,1.wav,0,0,0,6,6,0,None,1,,,,,,,,,,,,,0,6,6,6,,,,,,,,,,,,,69.91224879998481,,,,,,,,,,,,,,,,,,,,69.90026399999624,69.91224879998481,69.91224879998481,70.39547479999601,,71.89466910000192,None,1,,,,,,,,,,,,,,,,,,,,,,,,,,,,,,,,,,,3,001,2026-04-27_13h22.42.254,untitled,,2025.1.1,60.07849856245955,2026-04-27 13h22.53.195997 +0200,
N,5.wav,0,0,0,7,7,0,None,1,,,,,,,,,,,,,0,7,7,7,,,,,,,,,,,,,71.91090590000385,,,,,,,,,,,,,,,,,,,,71.89871519998997,71.91090590000385,71.91090590000385,72.39378990000114,,73.89302809999208,None,1,,,,,,,,,,,,,,,,,,,,,,,,,,,,,,,,,,,3,001,2026-04-27_13h22.42.254,untitled,,2025.1.1,60.07849856245955,2026-04-27 13h22.53.195997 +0200,
V,1.wav,0,1,0,8,8,0,None,1,,,,,,,,,,,,,0,8,8,8,,,,,,,,,,,,,73.90916680000373,,,,,,,,,,,,,,,,,,,,73.89737839999725,73.90916680000373,73.90916680000373,74.39234389999183,,75.89099899999565,None,1,,,,,,,,,,,,,,,,,,,,,,,,,,,,,,,,,,,3,001,2026-04-27_13h22.42.254,untitled,,2025.1.1,60.07849856245955,2026-04-27 13h22.53.195997 +0200,
L,6.wav,0,0,0,9,9,0,None,1,,,,,,,,,,,,,0,9,9,9,,,,,,,,,,,,,75.90764130000025,,,,,,,,,,,,,,,,,,,,75.89256350000505,75.90764130000025,75.90764130000025,76.3906580999901,,77.88963560000411,None,1,,,,,,,,,,,,,,,,,,,,,,,,,,,,,,,,,,,3,001,2026-04-27_13h22.42.254,untitled,,2025.1.1,60.07849856245955,2026-04-27 13h22.53.195997 +0200,
H,7.wav,0,0,0,10,10,0,None,1,,,,,,,,,,,,,0,10,10,10,,,,,,,,,,,,,77.9058975999942,,,,,,,,,,,,,,,,,,,,77.89389039998059,77.9058975999942,77.9058975999942,78.38889780000318,79.90434919999097,79.90450529998634,None,1,,,,,,,,,,,,,,,,,,,,,,,,,,,,,,,,,,,3,001,2026-04-27_13h22.42.254,untitled,,2025.1.1,60.07849856245955,2026-04-27 13h22.53.195997 +0200,
L,4.wav,1,0,0,11,11,0,space,1,1.5117997000052128,0.1202890999848023,,,,,,,,,,,0,11,11,11,,,,,,,,,,,,,79.92104159999872,,,,,,,,,,,,,,,,,,,,79.90598619999946,79.92104159999872,79.92104159999872,80.40386389999185,,81.90279880000162,space,1,1.5117997000052128,0.1202890999848023,,,,,,,,,,,,,,,,,,,,,,,,,,,,,,,,,3,001,2026-04-27_13h22.42.254,untitled,,2025.1.1,60.07849856245955,2026-04-27 13h22.53.195997 +0200,
F,3.wav,0,0,0,12,12,0,None,1,,,,,,,,,,,,,0,12,12,12,,,,,,,,,,,,,81.91942570000538,,,,,,,,,,,,,,,,,,,,81.90446079999674,81.91942570000538,81.91942570000538,82.40214859999833,,83.9011285000015,None,1,,,,,,,,,,,,,,,,,,,,,,,,,,,,,,,,,,,3,001,2026-04-27_13h22.42.254,untitled,,2025.1.1,60.07849856245955,2026-04-27 13h22.53.195997 +0200,
A,6.wav,0,0,0,13,13,0,None,1,,,,,,,,,,,,,0,13,13,13,,,,,,,,,,,,,83.91779429998132,,,,,,,,,,,,,,,,,,,,83.90597349999007,83.91779429998132,83.91779429998132,84.40061409998452,,85.89961849999963,None,1,,,,,,,,,,,,,,,,,,,,,,,,,,,,,,,,,,,3,001,2026-04-27_13h22.42.254,untitled,,2025.1.1,60.07849856245955,2026-04-27 13h22.53.195997 +0200,
R,1.wav,0,0,0,14,14,0,None,1,,,,,,,,,,,,,0,14,14,14,,,,,,,,,,,,,85.91601109999465,,,,,,,,,,,,,,,,,,,,85.90364039997803,85.91601109999465,85.91601109999465,86.39906029999838,,87.89783669999451,None,1,,,,,,,,,,,,,,,,,,,,,,,,,,,,,,,,,,,3,001,2026-04-27_13h22.42.254,untitled,,2025.1.1,60.07849856245955,2026-04-27 13h22.53.195997 +0200,
D,6.wav,0,1,0,15,15,0,None,1,,,,,,,,,,,,,0,15,15,15,,,,,,,,,,,,,87.91438519998337,,,,,,,,,,,,,,,,,,,,87.90218659999664,87.91438519998337,87.91438519998337,88.39724219997879,,89.89646509999875,None,1,,,,,,,,,,,,,,,,,,,,,,,,,,,,,,,,,,,3,001,2026-04-27_13h22.42.254,untitled,,2025.1.1,60.07849856245955,2026-04-27 13h22.53.195997 +0200,
R,4.wav,1,0,0,16,16,0,space,1,1.5421758000156842,0.1348504000052344,,,,,,,,,,,0,16,16,16,,,,,,,,,,,,,89.91288099999656,,,,,,,,,,,,,,,,,,,,89.89954709997983,89.91288099999656,89.91288099999656,90.39547590000439,91.89444350000122,91.89463709999109,space,1,1.5421758000156842,0.1348504000052344,,,,,,,,,,,,,,,,,,,,,,,,,,,,,,,,,3,001,2026-04-27_13h22.42.254,untitled,,2025.1.1,60.07849856245955,2026-04-27 13h22.53.195997 +0200,
X,3.wav,0,0,0,17,17,0,None,1,,,,,,,,,,,,,0,17,17,17,,,,,,,,,,,,,91.9110868999851,,,,,,,,,,,,,,,,,,,,91.89988009998342,91.9110868999851,91.9110868999851,92.39397340000141,,93.89285390000441,None,1,,,,,,,,,,,,,,,,,,,,,,,,,,,,,,,,,,,3,001,2026-04-27_13h22.42.254,untitled,,2025.1.1,60.07849856245955,2026-04-27 13h22.53.195997 +0200,
N,7.wav,0,0,0,18,18,0,None,1,,,,,,,,,,,,,0,18,18,18,,,,,,,,,,,,,93.90951759999734,,,,,,,,,,,,,,,,,,,,93.89456329998211,93.90951759999734,93.90951759999734,94.39239589998033,,95.89119880000362,None,1,,,,,,,,,,,,,,,,,,,,,,,,,,,,,,,,,,,3,001,2026-04-27_13h22.42.254,untitled,,2025.1.1,60.07849856245955,2026-04-27 13h22.53.195997 +0200,
C,5.wav,0,0,0,19,19,0,None,1,,,,,,,,,,,,,0,19,19,19,,,,,,,,,,,,,95.90795559997787,,,,,,,,,,,,,,,,,,,,95.8946619000053,95.90795559997787,95.90795559997787,96.39072249998571,,97.88968569997814,None,1,,,,,,,,,,,,,,,,,,,,,,,,,,,,,,,,,,,3,001,2026-04-27_13h22.42.254,untitled,,2025.1.1,60.07849856245955,2026-04-27 13h22.53.195997 +0200,
A,2.wav,0,0,0,20,20,0,None,1,,,,,,,,,,,,,0,20,20,20,,,,,,,,,,,,,97.90618239998003,,,,,,,,,,,,,,,,,,,,97.89145289998851,97.90618239998003,97.90618239998003,98.38891489998787,99.88780090000364,99.90469809999922,None,1,,,,,,,,,,,,,,,,,,,,,,,,,,,,,,,,,,,3,001,2026-04-27_13h22.42.254,untitled,,2025.1.1,60.07849856245955,2026-04-27 13h22.53.195997 +0200,
N,7.wav,0,0,0,21,21,0,None,1,,,,,,,,,,,,,0,21,21,21,,,,,,,,,,,,,99.92116070000338,,,,,,,,,,,,,,,,,,,,99.90625840000575,99.92116070000338,99.92116070000338,100.40422939998098,,101.90307349999784,None,1,,,,,,,,,,,,,,,,,,,,,,,,,,,,,,,,,,,3,001,2026-04-27_13h22.42.254,untitled,,2025.1.1,60.07849856245955,2026-04-27 13h22.53.195997 +0200,
S,2.wav,0,1,0,22,22,0,None,1,,,,,,,,,,,,,0,22,22,22,,,,,,,,,,,,,101.91955799999414,,,,,,,,,,,,,,,,,,,,101.90764609997859,101.91955799999414,101.91955799999414,102.40244899998652,,103.90146850000019,None,1,,,,,,,,,,,,,,,,,,,,,,,,,,,,,,,,,,,3,001,2026-04-27_13h22.42.254,untitled,,2025.1.1,60.07849856245955,2026-04-27 13h22.53.195997 +0200,
D,8.wav,0,0,0,23,23,0,None,1,,,,,,,,,,,,,0,23,23,23,,,,,,,,,,,,,103.91795829997864,,,,,,,,,,,,,,,,,,,,103.90296819998184,103.91795829997864,103.91795829997864,104.40090569999302,,105.89987819999806,None,1,,,,,,,,,,,,,,,,,,,,,,,,,,,,,,,,,,,3,001,2026-04-27_13h22.42.254,untitled,,2025.1.1,60.07849856245955,2026-04-27 13h22.53.195997 +0200,
,,,,,,,,,,,,,,,,,,,,,,,,,,,,,,,,,,,,,,,,,,,,,,,,,,,,,,,,,,,,,,,,,,,,105.8999896000023,105.91628459998174,105.91628459998174,136.45806969999103,space,30.536596699996153,None,,,,,,,,,,,,,,,,,,,,,,,,,,3,001,2026-04-27_13h22.42.254,untitled,,2025.1.1,60.07849856245955,2026-04-27 13h22.53.195997 +0200,
Z,6.wav,0,0,0,0,0,0,,,,,bloc_c.xlsx,None,1,,,,,,,,,,,,0,0,0,0,0,0,0,1,0,0,0,0,136.47753519998514,,,,,,,,,,,,,,,,,,,,,,,,,,,,,,,,,,,,,136.47605779999867,136.47753519998514,136.97400899999775,138.47301799998968,None,1,,,,,,,,,,,,,,,,,,,,3,001,2026-04-27_13h22.42.254,untitled,,2025.1.1,60.07849856245955,2026-04-27 13h22.53.195997 +0200,
M,7.wav,0,0,0,1,1,0,,,,,bloc_c.xlsx,None,1,,,,,,,,,,,,0,0,0,0,0,0,0,1,0,1,1,1,138.4895308999985,,,,,,,,,,,,,,,,,,,,,,,,,,,,,,,,,,,,,138.47441779999644,138.4895308999985,138.97250529998564,140.47137959999964,None,1,,,,,,,,,,,,,,,,,,,,3,001,2026-04-27_13h22.42.254,untitled,,2025.1.1,60.07849856245955,2026-04-27 13h22.53.195997 +0200,
Z,1.wav,1,0,0,2,2,0,,,,,bloc_c.xlsx,space,1,1.1358506999968085,0.11246780000510626,,,,,,,,,,0,0,0,0,0,0,0,1,0,2,2,2,140.487733499991,,,,,,,,,,,,,,,,,,,,,,,,,,,,,,,,,,,,,140.47275419998914,140.487733499991,140.9708219000022,142.46994369997992,space,1,1.1358506999968085,0.11246780000510626,,,,,,,,,,,,,,,,,,3,001,2026-04-27_13h22.42.254,untitled,,2025.1.1,60.07849856245955,2026-04-27 13h22.53.195997 +0200,
E,8.wav,0,0,0,3,3,0,,,,,bloc_c.xlsx,None,1,,,,,,,,,,,,0,0,0,0,0,0,0,1,0,3,3,3,142.48620449998998,,,,,,,,,,,,,,,,,,,,,,,,,,,,,,,,,,,,,142.47452819999307,142.48620449998998,142.96917419999954,144.46805880000466,None,1,,,,,,,,,,,,,,,,,,,,3,001,2026-04-27_13h22.42.254,untitled,,2025.1.1,60.07849856245955,2026-04-27 13h22.53.195997 +0200,
R,3.wav,0,0,0,4,4,0,,,,,bloc_c.xlsx,None,1,,,,,,,,,,,,0,0,0,0,0,0,0,1,0,4,4,4,144.4846336999908,,,,,,,,,,,,,,,,,,,,,,,,,,,,,,,,,,,,,144.4694091999845,144.4846336999908,144.96743029999197,146.46661229999154,None,1,,,,,,,,,,,,,,,,,,,,3,001,2026-04-27_13h22.42.254,untitled,,2025.1.1,60.07849856245955,2026-04-27 13h22.53.195997 +0200,
J,8.wav,0,1,0,5,5,0,,,,,bloc_c.xlsx,None,1,,,,,,,,,,,,0,0,0,0,0,0,0,1,0,5,5,5,146.48284809998586,,,,,,,,,,,,,,,,,,,,,,,,,,,,,,,,,,,,,146.4701892999874,146.48284809998586,146.9657842000015,148.46485039999243,None,1,,,,,,,,,,,,,,,,,,,,3,001,2026-04-27_13h22.42.254,untitled,,2025.1.1,60.07849856245955,2026-04-27 13h22.53.195997 +0200,
R,5.wav,1,0,0,6,6,0,,,,,bloc_c.xlsx,space,1,1.1127479000133462,0.12330949999159202,,,,,,,,,,0,0,0,0,0,0,0,1,0,6,6,6,148.48123350000242,,,,,,,,,,,,,,,,,,,,,,,,,,,,,,,,,,,,,148.46627799997805,148.48123350000242,148.96427369999583,150.4632569999958,space,1,1.1127479000133462,0.12330949999159202,,,,,,,,,,,,,,,,,,3,001,2026-04-27_13h22.42.254,untitled,,2025.1.1,60.07849856245955,2026-04-27 13h22.53.195997 +0200,
Q,2.wav,0,0,0,7,7,0,,,,,bloc_c.xlsx,None,1,,,,,,,,,,,,0,0,0,0,0,0,0,1,0,7,7,7,150.47960319998674,,,,,,,,,,,,,,,,,,,,,,,,,,,,,,,,,,,,,150.46821219997946,150.47960319998674,150.9626240999787,152.46149950000108,None,1,,,,,,,,,,,,,,,,,,,,3,001,2026-04-27_13h22.42.254,untitled,,2025.1.1,60.07849856245955,2026-04-27 13h22.53.195997 +0200,
H,6.wav,0,0,0,8,8,0,,,,,bloc_c.xlsx,None,1,,,,,,,,,,,,0,0,0,0,0,0,0,1,0,8,8,8,152.47792479998316,,,,,,,,,,,,,,,,,,,,,,,,,,,,,,,,,,,,,152.46288189999177,152.47792479998316,152.96102590000373,154.45988359997864,None,1,,,,,,,,,,,,,,,,,,,,3,001,2026-04-27_13h22.42.254,untitled,,2025.1.1,60.07849856245955,2026-04-27 13h22.53.195997 +0200,
U,2.wav,0,1,0,9,9,0,,,,,bloc_c.xlsx,None,1,,,,,,,,,,,,0,0,0,0,0,0,0,1,0,9,9,9,154.47633579999092,,,,,,,,,,,,,,,,,,,,,,,,,,,,,,,,,,,,,154.46465519999037,154.47633579999092,154.95928069998627,156.47496339998906,None,1,,,156.47479419998126,,,,,,,,,,,,,,,,,3,001,2026-04-27_13h22.42.254,untitled,,2025.1.1,60.07849856245955,2026-04-27 13h22.53.195997 +0200,
H,3.wav,1,0,0,10,10,0,,,,,bloc_c.xlsx,space,1,1.233493300009286,0.1120150999922771,,,,,,,,,,0,0,0,0,0,0,0,1,0,10,10,10,156.4913155999966,,,,,,,,,,,,,,,,,,,,,,,,,,,,,,,,,,,,,156.4765826999792,156.4913155999966,156.97432069998467,158.47318010000163,space,1,1.233493300009286,0.1120150999922771,,,,,,,,,,,,,,,,,,3,001,2026-04-27_13h22.42.254,untitled,,2025.1.1,60.07849856245955,2026-04-27 13h22.53.195997 +0200,
Z,6.wav,0,0,0,11,11,0,,,,,bloc_c.xlsx,None,1,,,,,,,,,,,,0,0,0,0,0,0,0,1,0,11,11,11,158.48961439999403,,,,,,,,,,,,,,,,,,,,,,,,,,,,,,,,,,,,,158.47462599998107,158.48961439999403,158.97265379998134,160.47150109999347,None,1,,,,,,,,,,,,,,,,,,,,3,001,2026-04-27_13h22.42.254,untitled,,2025.1.1,60.07849856245955,2026-04-27 13h22.53.195997 +0200,
Q,2.wav,0,0,0,12,12,0,,,,,bloc_c.xlsx,None,1,,,,,,,,,,,,0,0,0,0,0,0,0,1,0,12,12,12,160.48797889999696,,,,,,,,,,,,,,,,,,,,,,,,,,,,,,,,,,,,,160.47290140000405,160.48797889999696,160.970971200004,162.4700852999813,None,1,,,,,,,,,,,,,,,,,,,,3,001,2026-04-27_13h22.42.254,untitled,,2025.1.1,60.07849856245955,2026-04-27 13h22.53.195997 +0200,
Z,1.wav,1,0,0,13,13,0,,,,,bloc_c.xlsx,space,1,0.955728699977044,0.1412123000191059,,,,,,,,,,0,0,0,0,0,0,0,1,0,13,13,13,162.48636300000362,,,,,,,,,,,,,,,,,,,,,,,,,,,,,,,,,,,,,162.47142879999592,162.48636300000362,162.96942819998367,164.4684363999986,space,1,0.955728699977044,0.1412123000191059,,,,,,,,,,,,,,,,,,3,001,2026-04-27_13h22.42.254,untitled,,2025.1.1,60.07849856245955,2026-04-27 13h22.53.195997 +0200,
N,2.wav,0,1,0,14,14,0,,,,,bloc_c.xlsx,None,1,,,,,,,,,,,,0,0,0,0,0,0,0,1,0,14,14,14,164.4846569999936,,,,,,,,,,,,,,,,,,,,,,,,,,,,,,,,,,,,,164.4698249999783,164.4846569999936,164.9677454000048,166.46696049999446,None,1,,,,,,,,,,,,,,,,,,,,3,001,2026-04-27_13h22.42.254,untitled,,2025.1.1,60.07849856245955,2026-04-27 13h22.53.195997 +0200,
U,4.wav,0,0,0,15,15,0,,,,,bloc_c.xlsx,None,1,,,,,,,,,,,,0,0,0,0,0,0,0,1,0,15,15,15,166.48312759998953,,,,,,,,,,,,,,,,,,,,,,,,,,,,,,,,,,,,,166.4683196999831,166.48312759998953,166.9660382999864,168.4649841999926,None,1,,,168.4648680999817,,,,,,,,,,,,,,,,,3,001,2026-04-27_13h22.42.254,untitled,,2025.1.1,60.07849856245955,2026-04-27 13h22.53.195997 +0200,
G,1.wav,0,0,0,16,16,0,,,,,bloc_c.xlsx,None,1,,,,,,,,,,,,0,0,0,0,0,0,0,1,0,16,16,16,168.48150449999957,,,,,,,,,,,,,,,,,,,,,,,,,,,,,,,,,,,,,168.46644920000108,168.48150449999957,168.96427409999887,170.46333499997854,None,1,,,,,,,,,,,,,,,,,,,,3,001,2026-04-27_13h22.42.254,untitled,,2025.1.1,60.07849856245955,2026-04-27 13h22.53.195997 +0200,
P,5.wav,0,0,0,17,17,0,,,,,bloc_c.xlsx,None,1,,,,,,,,,,,,0,0,0,0,0,0,0,1,0,17,17,17,170.47969659999944,,,,,,,,,,,,,,,,,,,,,,,,,,,,,,,,,,,,,170.4678389999899,170.47969659999944,170.96278449997772,172.46176809997996,None,1,,,,,,,,,,,,,,,,,,,,3,001,2026-04-27_13h22.42.254,untitled,,2025.1.1,60.07849856245955,2026-04-27 13h22.53.195997 +0200,
G,1.wav,1,1,1,18,18,0,,,,,bloc_c.xlsx,space,1,1.2009897000098135,0.11948959997971542,,,,,,,,,,0,0,0,0,0,0,0,1,0,18,18,18,172.47801560000516,,,,,,,,,,,,,,,,,,,,,,,,,,,,,,,,,,,,,172.46302379999543,172.47801560000516,172.96097899999586,174.45999139998457,space,1,1.2009897000098135,0.11948959997971542,,,,,,,,,,,,,,,,,,3,001,2026-04-27_13h22.42.254,untitled,,2025.1.1,60.07849856245955,2026-04-27 13h22.53.195997 +0200,
C,2.wav,0,0,0,19,19,0,,,,,bloc_c.xlsx,None,1,,,,,,,,,,,,0,0,0,0,0,0,0,1,0,19,19,19,174.47630929999286,,,,,,,,,,,,,,,,,,,,,,,,,,,,,,,,,,,,,174.4612458999909,174.47630929999286,174.9595452999929,176.47480009999708,None,1,,,176.47464579998632,,,,,,,,,,,,,,,,,3,001,2026-04-27_13h22.42.254,untitled,,2025.1.1,60.07849856245955,2026-04-27 13h22.53.195997 +0200,
T,3.wav,0,0,0,20,20,0,,,,,bloc_c.xlsx,None,1,,,,,,,,,,,,0,0,0,0,0,0,0,1,0,20,20,20,176.49150329999975,,,,,,,,,,,,,,,,,,,,,,,,,,,,,,,,,,,,,176.4783988999843,176.49150329999975,176.97447729998385,178.47348719998263,None,1,,,,,,,,,,,,,,,,,,,,3,001,2026-04-27_13h22.42.254,untitled,,2025.1.1,60.07849856245955,2026-04-27 13h22.53.195997 +0200,
B,2.wav,0,1,0,21,21,0,,,,,bloc_c.xlsx,None,1,,,,,,,,,,,,0,0,0,0,0,0,0,1,0,21,21,21,178.490044199978,,,,,,,,,,,,,,,,,,,,,,,,,,,,,,,,,,,,,178.47531280000112,178.490044199978,178.97264979998,180.47170649998588,None,1,,,,,,,,,,,,,,,,,,,,3,001,2026-04-27_13h22.42.254,untitled,,2025.1.1,60.07849856245955,2026-04-27 13h22.53.195997 +0200,
L,4.wav,0,0,0,22,22,0,,,,,bloc_c.xlsx,None,1,,,,,,,,,,,,0,0,0,0,0,0,0,1,0,22,22,22,180.48838149997755,,,,,,,,,,,,,,,,,,,,,,,,,,,,,,,,,,,,,180.473187399999,180.48838149997755,180.97112750000088,182.4699794999906,None,1,,,,,,,,,,,,,,,,,,,,3,001,2026-04-27_13h22.42.254,untitled,,2025.1.1,60.07849856245955,2026-04-27 13h22.53.195997 +0200,
F,3.wav,0,0,0,23,23,0,,,,,bloc_c.xlsx,None,1,,,,,,,,,,,,0,0,0,0,0,0,0,1,0,23,23,23,182.48672169999918,,,,,,,,,,,,,,,,,,,,,,,,,,,,,,,,,,,,,182.47124579999945,182.48672169999918,182.96961840000586,184.46830179999233,None,1,,,,,,,,,,,,,,,,,,,,3,001,2026-04-27_13h22.42.254,untitled,,2025.1.1,60.07849856245955,2026-04-27 13h22.53.195997 +0200,
T,4.wav,0,1,0,24,24,0,,,,,bloc_c.xlsx,None,1,,,,,,,,,,,,0,0,0,0,0,0,0,1,0,24,24,24,184.48495359998196,,,,,,,,,,,,,,,,,,,,,,,,,,,,,,,,,,,,,184.46977769999648,184.48495359998196,184.9678847999894,186.46672490000492,None,1,,,,,,,,,,,,,,,,,,,,3,001,2026-04-27_13h22.42.254,untitled,,2025.1.1,60.07849856245955,2026-04-27 13h22.53.195997 +0200,
F,6.wav,1,0,0,25,25,0,,,,,bloc_c.xlsx,space,1,1.3381450999877416,0.13406930002383888,,,,,,,,,,0,0,0,0,0,0,0,1,0,25,25,25,186.48330639998312,,,,,,,,,,,,,,,,,,,,,,,,,,,,,,,,,,,,,186.46803580000415,186.48330639998312,186.9661555000057,188.4654951999837,space,1,1.3381450999877416,0.13406930002383888,,,,,,,,,,,,,,,,,,3,001,2026-04-27_13h22.42.254,untitled,,2025.1.1,60.07849856245955,2026-04-27 13h22.53.195997 +0200,
D,5.wav,0,0,0,26,26,0,,,,,bloc_c.xlsx,None,1,,,,,,,,,,,,0,0,0,0,0,0,0,1,0,26,26,26,188.48163309998927,,,,,,,,,,,,,,,,,,,,,,,,,,,,,,,,,,,,,188.4668935999798,188.48163309998927,188.9645629999868,190.46351639999193,None,1,,,,,,,,,,,,,,,,,,,,3,001,2026-04-27_13h22.42.254,untitled,,2025.1.1,60.07849856245955,2026-04-27 13h22.53.195997 +0200,
G,6.wav,0,1,0,27,27,0,,,,,bloc_c.xlsx,None,1,,,,,,,,,,,,0,0,0,0,0,0,0,1,0,27,27,27,190.48010169999907,,,,,,,,,,,,,,,,,,,,,,,,,,,,,,,,,,,,,190.46502179998788,190.48010169999907,190.96290260000387,192.46189209999284,None,1,,,,,,,,,,,,,,,,,,,,3,001,2026-04-27_13h22.42.254,untitled,,2025.1.1,60.07849856245955,2026-04-27 13h22.53.195997 +0200,
E,2.wav,0,0,0,28,28,0,,,,,bloc_c.xlsx,None,1,,,,,,,,,,,,0,0,0,0,0,0,0,1,0,28,28,28,192.4785248999833,,,,,,,,,,,,,,,,,,,,,,,,,,,,,,,,,,,,,192.46340869998676,192.4785248999833,192.9613780999789,194.46028400000068,None,1,,,,,,,,,,,,,,,,,,,,3,001,2026-04-27_13h22.42.254,untitled,,2025.1.1,60.07849856245955,2026-04-27 13h22.53.195997 +0200,
G,8.wav,1,0,0,29,29,0,,,,,bloc_c.xlsx,space,1,1.1038134999980684,0.12857960001565516,,,,,,,,,,0,0,0,0,0,0,0,1,0,29,29,29,194.47678470000392,,,,,,,,,,,,,,,,,,,,,,,,,,,,,,,,,,,,,194.46173909999197,194.47678470000392,194.9596615000046,196.47550879998016,space,1,1.1038134999980684,0.12857960001565516,196.4751830000023,,,,,,,,,,,,,,,,,3,001,2026-04-27_13h22.42.254,untitled,,2025.1.1,60.07849856245955,2026-04-27 13h22.53.195997 +0200,
S,5.wav,0,0,0,30,30,0,,,,,bloc_c.xlsx,None,1,,,,,,,,,,,,0,0,0,0,0,0,0,1,0,30,30,30,196.49168809998082,,,,,,,,,,,,,,,,,,,,,,,,,,,,,,,,,,,,,196.47700169999734,196.49168809998082,196.95794709998881,198.47361089999322,None,1,,,198.47349030000623,,,,,,,,,,,,,,,,,3,001,2026-04-27_13h22.42.254,untitled,,2025.1.1,60.07849856245955,2026-04-27 13h22.53.195997 +0200,
N,1.wav,0,0,0,31,31,0,,,,,bloc_c.xlsx,None,1,,,,,,,,,,,,0,0,0,0,0,0,0,1,0,31,31,31,198.49021580000408,,,,,,,,,,,,,,,,,,,,,,,,,,,,,,,,,,,,,198.47494839999126,198.49021580000408,198.9730678999913,200.4722169000015,None,1,,,,,,,,,,,,,,,,,,,,3,001,2026-04-27_13h22.42.254,untitled,,2025.1.1,60.07849856245955,2026-04-27 13h22.53.195997 +0200,
V,2.wav,0,0,0,32,32,0,,,,,bloc_c.xlsx,None,1,,,,,,,,,,,,0,0,0,0,0,0,0,1,0,32,32,32,200.48848060000455,,,,,,,,,,,,,,,,,,,,,,,,,,,,,,,,,,,,,200.47378709999612,200.48848060000455,200.9713617999805,202.4703566999815,None,1,,,,,,,,,,,,,,,,,,,,3,001,2026-04-27_13h22.42.254,untitled,,2025.1.1,60.07849856245955,2026-04-27 13h22.53.195997 +0200,
X,1.wav,0,1,0,33,33,0,,,,,bloc_c.xlsx,None,1,,,,,,,,,,,,0,0,0,0,0,0,0,1,0,33,33,33,202.48673189998954,,,,,,,,,,,,,,,,,,,,,,,,,,,,,,,,,,,,,202.47195919998921,202.48673189998954,202.96976609999547,204.46873930000584,None,1,,,,,,,,,,,,,,,,,,,,3,001,2026-04-27_13h22.42.254,untitled,,2025.1.1,60.07849856245955,2026-04-27 13h22.53.195997 +0200,
A,4.wav,0,0,0,34,34,0,,,,,bloc_c.xlsx,None,1,,,,,,,,,,,,0,0,0,0,0,0,0,1,0,34,34,34,204.48521909999545,,,,,,,,,,,,,,,,,,,,,,,,,,,,,,,,,,,,,204.47021219998715,204.48521909999545,204.96809549999307,206.46720129999449,None,1,,,,,,,,,,,,,,,,,,,,3,001,2026-04-27_13h22.42.254,untitled,,2025.1.1,60.07849856245955,2026-04-27 13h22.53.195997 +0200,
R,2.wav,0,0,0,35,35,0,,,,,bloc_c.xlsx,None,1,,,,,,,,,,,,0,0,0,0,0,0,0,1,0,35,35,35,206.48342539998703,,,,,,,,,,,,,,,,,,,,,,,,,,,,,,,,,,,,,206.46854939998593,206.48342539998703,206.9664913000015,208.46539319999283,None,1,,,,,,,,,,,,,,,,,,,,3,001,2026-04-27_13h22.42.254,untitled,,2025.1.1,60.07849856245955,2026-04-27 13h22.53.195997 +0200,
A,6.wav,1,0,0,36,36,0,,,,,bloc_c.xlsx,space,1,1.277996399992844,0.13430550001794472,,,,,,,,,,0,0,0,0,0,0,0,1,0,36,36,36,208.48196199999074,,,,,,,,,,,,,,,,,,,,,,,,,,,,,,,,,,,,,208.46673159999773,208.48196199999074,208.96480489999522,210.46382579999045,space,1,1.277996399992844,0.13430550001794472,,,,,,,,,,,,,,,,,,3,001,2026-04-27_13h22.42.254,untitled,,2025.1.1,60.07849856245955,2026-04-27 13h22.53.195997 +0200,
U,8.wav,0,0,0,37,37,0,,,,,bloc_c.xlsx,None,1,,,,,,,,,,,,0,0,0,0,0,0,0,1,0,37,37,37,210.48028379998868,,,,,,,,,,,,,,,,,,,,,,,,,,,,,,,,,,,,,210.4657154000015,210.48028379998868,210.96311419998528,212.4621855999867,None,1,,,,,,,,,,,,,,,,,,,,3,001,2026-04-27_13h22.42.254,untitled,,2025.1.1,60.07849856245955,2026-04-27 13h22.53.195997 +0200,
N,1.wav,0,0,0,38,38,0,,,,,bloc_c.xlsx,None,1,,,,,,,,,,,,0,0,0,0,0,0,0,1,0,38,38,38,212.47848930000328,,,,,,,,,,,,,,,,,,,,,,,,,,,,,,,,,,,,,212.46358250000048,212.47848930000328,212.96152339997934,214.46080159998382,None,1,,,,,,,,,,,,,,,,,,,,3,001,2026-04-27_13h22.42.254,untitled,,2025.1.1,60.07849856245955,2026-04-27 13h22.53.195997 +0200,
K,3.wav,0,0,0,39,39,0,,,,,bloc_c.xlsx,None,1,,,,,,,,,,,,0,0,0,0,0,0,0,1,0,39,39,39,214.47700029998668,,,,,,,,,,,,,,,,,,,,,,,,,,,,,,,,,,,,,214.46727219998138,214.47700029998668,214.95993479999015,216.47547099998337,None,1,,,216.47534509998513,,,,,,,,,,,,,,,,,3,001,2026-04-27_13h22.42.254,untitled,,2025.1.1,60.07849856245955,2026-04-27 13h22.53.195997 +0200,
N,1.wav,1,1,1,40,40,0,,,,,bloc_c.xlsx,None,0,,,,,,,,,,,,0,0,0,0,0,0,0,1,0,40,40,40,216.49174339999445,,,,,,,,,,,,,,,,,,,,,,,,,,,,,,,,,,,,,216.48004769999534,216.49174339999445,216.9582906999858,218.47394559998065,None,0,,,218.47375099998317,,,,,,,,,,,,,,,,,3,001,2026-04-27_13h22.42.254,untitled,,2025.1.1,60.07849856245955,2026-04-27 13h22.53.195997 +0200,
P,8.wav,0,0,0,41,41,0,,,,,bloc_c.xlsx,None,1,,,,,,,,,,,,0,0,0,0,0,0,0,1,0,41,41,41,218.49030589999165,,,,,,,,,,,,,,,,,,,,,,,,,,,,,,,,,,,,,218.4761166999815,218.49030589999165,218.97334149997914,220.47241059999214,None,1,,,,,,,,,,,,,,,,,,,,3,001,2026-04-27_13h22.42.254,untitled,,2025.1.1,60.07849856245955,2026-04-27 13h22.53.195997 +0200,
G,2.wav,0,0,0,42,42,0,,,,,bloc_c.xlsx,None,1,,,,,,,,,,,,0,0,0,0,0,0,0,1,0,42,42,42,220.48854419999407,,,,,,,,,,,,,,,,,,,,,,,,,,,,,,,,,,,,,220.47431580000557,220.48854419999407,220.9716397000011,222.47063979998347,None,1,,,,,,,,,,,,,,,,,,,,3,001,2026-04-27_13h22.42.254,untitled,,2025.1.1,60.07849856245955,2026-04-27 13h22.53.195997 +0200,
Q,4.wav,0,0,0,43,43,0,,,,,bloc_c.xlsx,None,1,,,,,,,,,,,,0,0,0,0,0,0,0,1,0,43,43,43,222.48686619999353,,,,,,,,,,,,,,,,,,,,,,,,,,,,,,,,,,,,,222.4719688000041,222.48686619999353,222.97005619999254,224.46892859999207,None,1,,,,,,,,,,,,,,,,,,,,3,001,2026-04-27_13h22.42.254,untitled,,2025.1.1,60.07849856245955,2026-04-27 13h22.53.195997 +0200,
B,6.wav,0,0,0,44,44,0,,,,,bloc_c.xlsx,None,1,,,,,,,,,,,,0,0,0,0,0,0,0,1,0,44,44,44,224.48532559999148,,,,,,,,,,,,,,,,,,,,,,,,,,,,,,,,,,,,,224.47043059999123,224.48532559999148,224.96819819998927,226.4672556000005,None,1,,,,,,,,,,,,,,,,,,,,3,001,2026-04-27_13h22.42.254,untitled,,2025.1.1,60.07849856245955,2026-04-27 13h22.53.195997 +0200,
Q,2.wav,1,0,0,45,45,0,,,,,bloc_c.xlsx,space,1,1.1680088999855798,0.13843250001082197,,,,,,,,,,0,0,0,0,0,0,0,1,0,45,45,45,226.4837325999979,,,,,,,,,,,,,,,,,,,,,,,,,,,,,,,,,,,,,226.46856649999972,226.4837325999979,226.96672789999866,228.4655630000052,space,1,1.1680088999855798,0.13843250001082197,,,,,,,,,,,,,,,,,,3,001,2026-04-27_13h22.42.254,untitled,,2025.1.1,60.07849856245955,2026-04-27 13h22.53.195997 +0200,
E,3.wav,0,0,0,46,46,0,,,,,bloc_c.xlsx,None,1,,,,,,,,,,,,0,0,0,0,0,0,0,1,0,46,46,46,228.48210949997883,,,,,,,,,,,,,,,,,,,,,,,,,,,,,,,,,,,,,228.4670462999784,228.48210949997883,228.9649836999888,230.46389660000568,None,1,,,,,,,,,,,,,,,,,,,,3,001,2026-04-27_13h22.42.254,untitled,,2025.1.1,60.07849856245955,2026-04-27 13h22.53.195997 +0200,
U,2.wav,0,1,0,47,47,0,,,,,bloc_c.xlsx,None,1,,,,,,,,,,,,0,0,0,0,0,0,0,1,0,47,47,47,230.48043269998743,,,,,,,,,,,,,,,,,,,,,,,,,,,,,,,,,,,,,230.46521289998782,230.48043269998743,230.96342970000114,232.46223559998907,None,1,,,,,,,,,,,,,,,,,,,,3,001,2026-04-27_13h22.42.254,untitled,,2025.1.1,60.07849856245955,2026-04-27 13h22.53.195997 +0200,
D,4.wav,0,0,0,48,48,0,,,,,bloc_c.xlsx,None,1,,,,,,,,,,,,0,0,0,0,0,0,0,1,0,48,48,48,232.4787810999842,,,,,,,,,,,,,,,,,,,,,,,,,,,,,,,,,,,,,232.46368369998527,232.4787810999842,232.96179989998927,234.46075389999896,None,1,,,,,,,,,,,,,,,,,,,,3,001,2026-04-27_13h22.42.254,untitled,,2025.1.1,60.07849856245955,2026-04-27 13h22.53.195997 +0200,
W,6.wav,0,0,0,49,49,0,,,,,bloc_c.xlsx,None,1,,,,,,,,,,,,0,0,0,0,0,0,0,1,0,49,49,49,234.4770475999976,,,,,,,,,,,,,,,,,,,,,,,,,,,,,,,,,,,,,234.46501779998653,234.4770475999976,234.96015860000625,236.47570929999347,None,1,,,236.4755368999904,,,,,,,,,,,,,,,,,3,001,2026-04-27_13h22.42.254,untitled,,2025.1.1,60.07849856245955,2026-04-27 13h22.53.195997 +0200,
,,,,,0,0,0,,,,,bloc_c.xlsx,,,,,,,,,,,,,,0,0,0,0,0,0,0,1,,,,,,,,,,,,,,,,,,,,,,,,,,,,,,,,,,,,,,,,,,,,,,,,,,,,,,,,,,,,,,,,,,,3,001,2026-04-27_13h22.42.254,untitled,,2025.1.1,60.07849856245955,2026-04-27 13h22.53.195997 +0200,
D,5.wav,0,0,0,0,0,0,,,,,bloc_a.xlsx,space,1,1.0312826999870595,0.13425699999788776,,,,,,,,,,0,0,0,0,0,1,1,0,0,0,0,0,236.5446532999922,,,,,,,,,,,,,,,,,,,,,,,,,,,,,,,,,,,,,236.5434320999775,236.5446532999922,236.95835699999589,238.47395679997862,space,1,1.0312826999870595,0.13425699999788776,238.47380039998097,,,,,,,,,,,,,,,,,3,001,2026-04-27_13h22.42.254,untitled,,2025.1.1,60.07849856245955,2026-04-27 13h22.53.195997 +0200,
W,2.wav,0,0,0,1,1,0,,,,,bloc_a.xlsx,space,1,1.2083036999974865,0.10871170001337305,,,,,,,,,,0,0,0,0,0,1,1,0,0,1,1,1,238.49056029997882,,,,,,,,,,,,,,,,,,,,,,,,,,,,,,,,,,,,,238.4753099999798,238.49056029997882,238.9734274999937,240.47237669999595,space,1,1.2083036999974865,0.10871170001337305,,,,,,,,,,,,,,,,,,3,001,2026-04-27_13h22.42.254,untitled,,2025.1.1,60.07849856245955,2026-04-27 13h22.53.195997 +0200,
C,5.wav,0,1,0,2,2,0,,,,,bloc_a.xlsx,None,1,,,,,,,,,,,,0,0,0,0,0,1,1,0,0,2,2,2,240.48895319999428,,,,,,,,,,,,,,,,,,,,,,,,,,,,,,,,,,,,,240.47439269997994,240.48895319999428,240.97187039998244,242.47082620000583,None,1,,,,,,,,,,,,,,,,,,,,3,001,2026-04-27_13h22.42.254,untitled,,2025.1.1,60.07849856245955,2026-04-27 13h22.53.195997 +0200,
T,8.wav,0,0,0,3,3,0,,,,,bloc_a.xlsx,None,1,,,,,,,,,,,,0,0,0,0,0,1,1,0,0,3,3,3,242.48711419999017,,,,,,,,,,,,,,,,,,,,,,,,,,,,,,,,,,,,,242.4721819999977,242.48711419999017,242.97017309998046,244.46922169998288,None,1,,,,,,,,,,,,,,,,,,,,3,001,2026-04-27_13h22.42.254,untitled,,2025.1.1,60.07849856245955,2026-04-27 13h22.53.195997 +0200,
N,3.wav,0,0,0,4,4,0,,,,,bloc_a.xlsx,None,1,,,,,,,,,,,,0,0,0,0,0,1,1,0,0,4,4,4,244.48562459999812,,,,,,,,,,,,,,,,,,,,,,,,,,,,,,,,,,,,,244.47086800000397,244.48562459999812,244.96869109998806,246.46753860000172,None,1,,,,,,,,,,,,,,,,,,,,3,001,2026-04-27_13h22.42.254,untitled,,2025.1.1,60.07849856245955,2026-04-27 13h22.53.195997 +0200,
C,5.wav,0,0,0,5,5,0,,,,,bloc_a.xlsx,None,1,,,,,,,,,,,,0,0,0,0,0,1,1,0,0,5,5,5,246.4839393000002,,,,,,,,,,,,,,,,,,,,,,,,,,,,,,,,,,,,,246.46932329999981,246.4839393000002,246.9667916999897,248.46585779997986,None,1,,,,,,,,,,,,,,,,,,,,3,001,2026-04-27_13h22.42.254,untitled,,2025.1.1,60.07849856245955,2026-04-27 13h22.53.195997 +0200,
N,4.wav,1,0,0,6,6,0,,,,,bloc_a.xlsx,space,1,0.9923565999779385,0.1280051000067033,,,,,,,,,,0,0,0,0,0,1,1,0,0,6,6,6,248.48227899998892,,,,,,,,,,,,,,,,,,,,,,,,,,,,,,,,,,,,,248.46750959998462,248.48227899998892,248.96541899998556,250.46426310000243,space,1,0.9923565999779385,0.1280051000067033,,,,,,,,,,,,,,,,,,3,001,2026-04-27_13h22.42.254,untitled,,2025.1.1,60.07849856245955,2026-04-27 13h22.53.195997 +0200,
D,2.wav,0,0,0,7,7,0,,,,,bloc_a.xlsx,None,1,,,,,,,,,,,,0,0,0,0,0,1,1,0,0,7,7,7,250.48066489998018,,,,,,,,,,,,,,,,,,,,,,,,,,,,,,,,,,,,,250.46580029997858,250.48066489998018,250.9637296999863,252.46261180000147,None,1,,,,,,,,,,,,,,,,,,,,3,001,2026-04-27_13h22.42.254,untitled,,2025.1.1,60.07849856245955,2026-04-27 13h22.53.195997 +0200,
R,4.wav,0,1,0,8,8,0,,,,,bloc_a.xlsx,None,1,,,,,,,,,,,,0,0,0,0,0,1,1,0,0,8,8,8,252.4790299999877,,,,,,,,,,,,,,,,,,,,,,,,,,,,,,,,,,,,,252.46396339999046,252.4790299999877,252.96201970000402,254.46092260000296,None,1,,,,,,,,,,,,,,,,,,,,3,001,2026-04-27_13h22.42.254,untitled,,2025.1.1,60.07849856245955,2026-04-27 13h22.53.195997 +0200,
A,7.wav,0,0,0,9,9,0,,,,,bloc_a.xlsx,None,1,,,,,,,,,,,,0,0,0,0,0,1,1,0,0,9,9,9,254.4774747999909,,,,,,,,,,,,,,,,,,,,,,,,,,,,,,,,,,,,,254.46234889997868,254.4774747999909,254.96030330000212,256.45938889999525,None,1,,,,,,,,,,,,,,,,,,,,3,001,2026-04-27_13h22.42.254,untitled,,2025.1.1,60.07849856245955,2026-04-27 13h22.53.195997 +0200,
V,3.wav,0,0,0,10,10,0,,,,,bloc_a.xlsx,None,1,,,,,,,,,,,,0,0,0,0,0,1,1,0,0,10,10,10,256.4757197999861,,,,,,,,,,,,,,,,,,,,,,,,,,,,,,,,,,,,,256.4625434000045,256.4757197999861,256.9587832999823,258.4744157999812,None,1,,,258.4742147999932,,,,,,,,,,,,,,,,,3,001,2026-04-27_13h22.42.254,untitled,,2025.1.1,60.07849856245955,2026-04-27 13h22.53.195997 +0200,
A,6.wav,1,0,0,11,11,0,,,,,bloc_a.xlsx,space,1,1.2303725999954622,0.11792069999501109,,,,,,,,,,0,0,0,0,0,1,1,0,0,11,11,11,258.4907009000017,,,,,,,,,,,,,,,,,,,,,,,,,,,,,,,,,,,,,258.4759212999779,258.4907009000017,258.97375309999916,260.4724381999986,space,1,1.2303725999954622,0.11792069999501109,,,,,,,,,,,,,,,,,,3,001,2026-04-27_13h22.42.254,untitled,,2025.1.1,60.07849856245955,2026-04-27 13h22.53.195997 +0200,
P,3.wav,0,1,0,12,12,0,,,,,bloc_a.xlsx,None,1,,,,,,,,,,,,0,0,0,0,0,1,1,0,0,12,12,12,260.48887410000316,,,,,,,,,,,,,,,,,,,,,,,,,,,,,,,,,,,,,260.4738827999972,260.48887410000316,260.97210559999803,262.4710952999885,None,1,,,,,,,,,,,,,,,,,,,,3,001,2026-04-27_13h22.42.254,untitled,,2025.1.1,60.07849856245955,2026-04-27 13h22.53.195997 +0200,
D,1.wav,0,0,0,13,13,0,,,,,bloc_a.xlsx,None,1,,,,,,,,,,,,0,0,0,0,0,1,1,0,0,13,13,13,262.4874069999787,,,,,,,,,,,,,,,,,,,,,,,,,,,,,,,,,,,,,262.47236220000195,262.4874069999787,262.97056659997907,264.46925829999964,None,1,,,,,,,,,,,,,,,,,,,,3,001,2026-04-27_13h22.42.254,untitled,,2025.1.1,60.07849856245955,2026-04-27 13h22.53.195997 +0200,
P,8.wav,1,0,0,14,14,0,,,,,bloc_a.xlsx,space,1,0.9445875000092201,0.14483000000473112,,,,,,,,,,0,0,0,0,0,1,1,0,0,14,14,14,264.4856249000004,,,,,,,,,,,,,,,,,,,,,,,,,,,,,,,,,,,,,264.4709062000038,264.4856249000004,264.96887379998225,266.46757029998116,space,1,0.9445875000092201,0.14483000000473112,,,,,,,,,,,,,,,,,,3,001,2026-04-27_13h22.42.254,untitled,,2025.1.1,60.07849856245955,2026-04-27 13h22.53.195997 +0200,
V,1.wav,0,1,0,15,15,0,,,,,bloc_a.xlsx,None,1,,,,,,,,,,,,0,0,0,0,0,1,1,0,0,15,15,15,266.48402919998625,,,,,,,,,,,,,,,,,,,,,,,,,,,,,,,,,,,,,266.4688232000044,266.48402919998625,266.96726189999026,268.4659279999905,None,1,,,,,,,,,,,,,,,,,,,,3,001,2026-04-27_13h22.42.254,untitled,,2025.1.1,60.07849856245955,2026-04-27 13h22.53.195997 +0200,
Y,3.wav,0,0,0,16,16,0,,,,,bloc_a.xlsx,None,1,,,,,,,,,,,,0,0,0,0,0,1,1,0,0,16,16,16,268.482305499987,,,,,,,,,,,,,,,,,,,,,,,,,,,,,,,,,,,,,268.47000259999186,268.482305499987,268.96571530000074,270.4644595999853,None,1,,,,,,,,,,,,,,,,,,,,3,001,2026-04-27_13h22.42.254,untitled,,2025.1.1,60.07849856245955,2026-04-27 13h22.53.195997 +0200,
V,7.wav,1,0,0,17,17,0,,,,,bloc_a.xlsx,space,1,1.2934134000097401,0.12041629999293946,,,,,,,,,,0,0,0,0,0,1,1,0,0,17,17,17,270.4808060999785,,,,,,,,,,,,,,,,,,,,,,,,,,,,,,,,,,,,,270.4657345000014,270.4808060999785,270.96380480000516,272.4629726999847,space,1,1.2934134000097401,0.12041629999293946,,,,,,,,,,,,,,,,,,3,001,2026-04-27_13h22.42.254,untitled,,2025.1.1,60.07849856245955,2026-04-27 13h22.53.195997 +0200,
N,5.wav,0,0,0,18,18,0,,,,,bloc_a.xlsx,None,1,,,,,,,,,,,,0,0,0,0,0,1,1,0,0,18,18,18,272.47912689999794,,,,,,,,,,,,,,,,,,,,,,,,,,,,,,,,,,,,,272.4642687999876,272.47912689999794,272.9623229999852,274.46136610000394,None,1,,,,,,,,,,,,,,,,,,,,3,001,2026-04-27_13h22.42.254,untitled,,2025.1.1,60.07849856245955,2026-04-27 13h22.53.195997 +0200,
A,4.wav,0,0,0,19,19,0,,,,,bloc_a.xlsx,None,1,,,,,,,,,,,,0,0,0,0,0,1,1,0,0,19,19,19,274.4774697999819,,,,,,,,,,,,,,,,,,,,,,,,,,,,,,,,,,,,,274.46286020000116,274.4774697999819,274.9605811999936,276.4596765000024,None,1,,,,,,,,,,,,,,,,,,,,3,001,2026-04-27_13h22.42.254,untitled,,2025.1.1,60.07849856245955,2026-04-27 13h22.53.195997 +0200,
N,5.wav,1,1,1,20,20,0,,,,,bloc_a.xlsx,None,0,,,,,,,,,,,,0,0,0,0,0,1,1,0,0,20,20,20,276.47599469998386,,,,,,,,,,,,,,,,,,,,,,,,,,,,,,,,,,,,,276.4612414999865,276.47599469998386,276.95891519999714,278.47429280000506,None,0,,,278.474185900006,,,,,,,,,,,,,,,,,3,001,2026-04-27_13h22.42.254,untitled,,2025.1.1,60.07849856245955,2026-04-27 13h22.53.195997 +0200,
M,1.wav,0,0,0,21,21,0,,,,,bloc_a.xlsx,None,1,,,,,,,,,,,,0,0,0,0,0,1,1,0,0,21,21,21,278.4909636999946,,,,,,,,,,,,,,,,,,,,,,,,,,,,,,,,,,,,,278.4757541999861,278.4909636999946,278.97389959997963,280.47279790000175,None,1,,,,,,,,,,,,,,,,,,,,3,001,2026-04-27_13h22.42.254,untitled,,2025.1.1,60.07849856245955,2026-04-27 13h22.53.195997 +0200,
J,8.wav,0,0,0,22,22,0,,,,,bloc_a.xlsx,None,1,,,,,,,,,,,,0,0,0,0,0,1,1,0,0,22,22,22,280.4893557000032,,,,,,,,,,,,,,,,,,,,,,,,,,,,,,,,,,,,,280.47450499999104,280.4893557000032,280.97218680000515,282.47108230000595,None,1,,,282.4709933999984,,,,,,,,,,,,,,,,,3,001,2026-04-27_13h22.42.254,untitled,,2025.1.1,60.07849856245955,2026-04-27 13h22.53.195997 +0200,
T,3.wav,0,0,0,23,23,0,,,,,bloc_a.xlsx,None,1,,,,,,,,,,,,0,0,0,0,0,1,1,0,0,23,23,23,282.4878566999978,,,,,,,,,,,,,,,,,,,,,,,,,,,,,,,,,,,,,282.47239119998994,282.4878566999978,282.9705194999988,284.46940599998925,None,1,,,,,,,,,,,,,,,,,,,,3,001,2026-04-27_13h22.42.254,untitled,,2025.1.1,60.07849856245955,2026-04-27 13h22.53.195997 +0200,
J,5.wav,1,0,0,24,24,0,,,,,bloc_a.xlsx,space,1,1.3267367000225931,0.15221759999985807,,,,,,,,,,0,0,0,0,0,1,1,0,0,24,24,24,284.4861800999788,,,,,,,,,,,,,,,,,,,,,,,,,,,,,,,,,,,,,284.47075969999423,284.4861800999788,284.9690130999952,286.46780009998474,space,1,1.3267367000225931,0.15221759999985807,,,,,,,,,,,,,,,,,,3,001,2026-04-27_13h22.42.254,untitled,,2025.1.1,60.07849856245955,2026-04-27 13h22.53.195997 +0200,
B,3.wav,0,1,0,25,25,0,,,,,bloc_a.xlsx,None,1,,,,,,,,,,,,0,0,0,0,0,1,1,0,0,25,25,25,286.4844015999988,,,,,,,,,,,,,,,,,,,,,,,,,,,,,,,,,,,,,286.4691224999842,286.4844015999988,286.967298100004,288.46603559999494,None,1,,,,,,,,,,,,,,,,,,,,3,001,2026-04-27_13h22.42.254,untitled,,2025.1.1,60.07849856245955,2026-04-27 13h22.53.195997 +0200,
V,8.wav,0,0,0,26,26,0,,,,,bloc_a.xlsx,None,1,,,,,,,,,,,,0,0,0,0,0,1,1,0,0,26,26,26,288.48278580000624,,,,,,,,,,,,,,,,,,,,,,,,,,,,,,,,,,,,,288.4673562999815,288.48278580000624,288.9657498000015,290.4646834000014,None,1,,,,,,,,,,,,,,,,,,,,3,001,2026-04-27_13h22.42.254,untitled,,2025.1.1,60.07849856245955,2026-04-27 13h22.53.195997 +0200,
B,1.wav,1,0,0,27,27,0,,,,,bloc_a.xlsx,space,1,1.0429668000142556,0.13693349997629412,,,,,,,,,,0,0,0,0,0,1,1,0,0,27,27,27,290.4811413999996,,,,,,,,,,,,,,,,,,,,,,,,,,,,,,,,,,,,,290.46615739999106,290.4811413999996,290.9640706999926,292.46315130000585,space,1,1.0429668000142556,0.13693349997629412,,,,,,,,,,,,,,,,,,3,001,2026-04-27_13h22.42.254,untitled,,2025.1.1,60.07849856245955,2026-04-27 13h22.53.195997 +0200,
M,4.wav,0,0,0,28,28,0,,,,,bloc_a.xlsx,None,1,,,,,,,,,,,,0,0,0,0,0,1,1,0,0,28,28,28,292.4795069999818,,,,,,,,,,,,,,,,,,,,,,,,,,,,,,,,,,,,,292.46453569998266,292.4795069999818,292.9623752000043,294.4612404999789,None,1,,,,,,,,,,,,,,,,,,,,3,001,2026-04-27_13h22.42.254,untitled,,2025.1.1,60.07849856245955,2026-04-27 13h22.53.195997 +0200,
R,6.wav,0,0,0,29,29,0,,,,,bloc_a.xlsx,None,1,,,,,,,,,,,,0,0,0,0,0,1,1,0,0,29,29,29,294.47778329998255,,,,,,,,,,,,,,,,,,,,,,,,,,,,,,,,,,,,,294.46256240000366,294.47778329998255,294.9607007000013,296.4595705999818,None,1,,,,,,,,,,,,,,,,,,,,3,001,2026-04-27_13h22.42.254,untitled,,2025.1.1,60.07849856245955,2026-04-27 13h22.53.195997 +0200,
N,4.wav,0,1,0,30,30,0,,,,,bloc_a.xlsx,None,1,,,,,,,,,,,,0,0,0,0,0,1,1,0,0,30,30,30,296.4761557999882,,,,,,,,,,,,,,,,,,,,,,,,,,,,,,,,,,,,,296.4612280000001,296.4761557999882,296.95923929999117,298.4749058999878,None,1,,,298.4746546999959,,,,,,,,,,,,,,,,,3,001,2026-04-27_13h22.42.254,untitled,,2025.1.1,60.07849856245955,2026-04-27 13h22.53.195997 +0200,
A,8.wav,0,0,0,31,31,0,,,,,bloc_a.xlsx,None,1,,,,,,,,,,,,0,0,0,0,0,1,1,0,0,31,31,31,298.4912541999947,,,,,,,,,,,,,,,,,,,,,,,,,,,,,,,,,,,,,298.4767878999992,298.4912541999947,298.97413909999887,300.4729635999829,None,1,,,,,,,,,,,,,,,,,,,,3,001,2026-04-27_13h22.42.254,untitled,,2025.1.1,60.07849856245955,2026-04-27 13h22.53.195997 +0200,
Y,7.wav,0,0,0,32,32,0,,,,,bloc_a.xlsx,None,1,,,,,,,,,,,,0,0,0,0,0,1,1,0,0,32,32,32,300.48940449999645,,,,,,,,,,,,,,,,,,,,,,,,,,,,,,,,,,,,,300.47445559999323,300.48940449999645,300.9723557999823,302.47142819999135,None,1,,,,,,,,,,,,,,,,,,,,3,001,2026-04-27_13h22.42.254,untitled,,2025.1.1,60.07849856245955,2026-04-27 13h22.53.195997 +0200,
A,6.wav,1,0,0,33,33,0,,,,,bloc_a.xlsx,None,0,,,,,,,,,,,,0,0,0,0,0,1,1,0,0,33,33,33,302.48780249999254,,,,,,,,,,,,,,,,,,,,,,,,,,,,,,,,,,,,,302.47286099998746,302.48780249999254,302.9707878000045,304.4698997999949,None,0,,,,,,,,,,,,,,,,,,,,3,001,2026-04-27_13h22.42.254,untitled,,2025.1.1,60.07849856245955,2026-04-27 13h22.53.195997 +0200,
X,8.wav,0,0,0,34,34,0,,,,,bloc_a.xlsx,None,1,,,,,,,,,,,,0,0,0,0,0,1,1,0,0,34,34,34,304.48626099998364,,,,,,,,,,,,,,,,,,,,,,,,,,,,,,,,,,,,,304.4712001000007,304.48626099998364,304.9693447999889,306.4681906999904,None,1,,,,,,,,,,,,,,,,,,,,3,001,2026-04-27_13h22.42.254,untitled,,2025.1.1,60.07849856245955,2026-04-27 13h22.53.195997 +0200,
G,7.wav,0,0,0,35,35,0,,,,,bloc_a.xlsx,None,1,,,,,,,,,,,,0,0,0,0,0,1,1,0,0,35,35,35,306.48469079998904,,,,,,,,,,,,,,,,,,,,,,,,,,,,,,,,,,,,,306.4694232000038,306.48469079998904,306.96749710000586,308.4668545000022,None,1,,,,,,,,,,,,,,,,,,,,3,001,2026-04-27_13h22.42.254,untitled,,2025.1.1,60.07849856245955,2026-04-27 13h22.53.195997 +0200,
Q,8.wav,0,1,0,36,36,0,,,,,bloc_a.xlsx,None,1,,,,,,,,,,,,0,0,0,0,0,1,1,0,0,36,36,36,308.4830650999793,,,,,,,,,,,,,,,,,,,,,,,,,,,,,,,,,,,,,308.46834940000554,308.4830650999793,308.9659168999933,310.46504959999584,None,1,,,,,,,,,,,,,,,,,,,,3,001,2026-04-27_13h22.42.254,untitled,,2025.1.1,60.07849856245955,2026-04-27 13h22.53.195997 +0200,
C,4.wav,0,0,0,37,37,0,,,,,bloc_a.xlsx,None,1,,,,,,,,,,,,0,0,0,0,0,1,1,0,0,37,37,37,310.48145589997876,,,,,,,,,,,,,,,,,,,,,,,,,,,,,,,,,,,,,310.46645159999025,310.48145589997876,310.96426849998534,312.46332260000054,None,1,,,,,,,,,,,,,,,,,,,,3,001,2026-04-27_13h22.42.254,untitled,,2025.1.1,60.07849856245955,2026-04-27 13h22.53.195997 +0200,
Z,3.wav,0,0,0,38,38,0,,,,,bloc_a.xlsx,None,1,,,,,,,,,,,,0,0,0,0,0,1,1,0,0,38,38,38,312.4797222999914,,,,,,,,,,,,,,,,,,,,,,,,,,,,,,,,,,,,,312.46519319998333,312.4797222999914,312.9626018999843,314.46170319998055,None,1,,,,,,,,,,,,,,,,,,,,3,001,2026-04-27_13h22.42.254,untitled,,2025.1.1,60.07849856245955,2026-04-27 13h22.53.195997 +0200,
F,6.wav,0,0,0,39,39,0,,,,,bloc_a.xlsx,None,1,,,,,,,,,,,,0,0,0,0,0,1,1,0,0,39,39,39,314.47808579998673,,,,,,,,,,,,,,,,,,,,,,,,,,,,,,,,,,,,,314.4630898000032,314.47808579998673,314.9610916999809,316.4600769999961,None,1,,,,,,,,,,,,,,,,,,,,3,001,2026-04-27_13h22.42.254,untitled,,2025.1.1,60.07849856245955,2026-04-27 13h22.53.195997 +0200,
Z,1.wav,1,0,0,40,40,0,,,,,bloc_a.xlsx,space,1,1.4581043999933172,0.1263487999967765,,,,,,,,,,0,0,0,0,0,1,1,0,0,40,40,40,316.47635019998415,,,,,,,,,,,,,,,,,,,,,,,,,,,,,,,,,,,,,316.46184519998496,316.47635019998415,316.9593635999772,318.47500949999085,space,1,1.4581043999933172,0.1263487999967765,318.4748271999997,,,,,,,,,,,,,,,,,3,001,2026-04-27_13h22.42.254,untitled,,2025.1.1,60.07849856245955,2026-04-27 13h22.53.195997 +0200,
N,3.wav,0,0,0,41,41,0,,,,,bloc_a.xlsx,None,1,,,,,,,,,,,,0,0,0,0,0,1,1,0,0,41,41,41,318.4912956999906,,,,,,,,,,,,,,,,,,,,,,,,,,,,,,,,,,,,,318.4763763999799,318.4912956999906,318.9743433999829,320.4733250999998,None,1,,,,,,,,,,,,,,,,,,,,3,001,2026-04-27_13h22.42.254,untitled,,2025.1.1,60.07849856245955,2026-04-27 13h22.53.195997 +0200,
Y,1.wav,0,1,0,42,42,0,,,,,bloc_a.xlsx,None,1,,,,,,,,,,,,0,0,0,0,0,1,1,0,0,42,42,42,320.4895460999978,,,,,,,,,,,,,,,,,,,,,,,,,,,,,,,,,,,,,320.47463739998057,320.4895460999978,320.97280399999,322.47144449999905,None,1,,,,,,,,,,,,,,,,,,,,3,001,2026-04-27_13h22.42.254,untitled,,2025.1.1,60.07849856245955,2026-04-27 13h22.53.195997 +0200,
H,7.wav,0,0,0,43,43,0,,,,,bloc_a.xlsx,None,1,,,,,,,,,,,,0,0,0,0,0,1,1,0,0,43,43,43,322.4880002999853,,,,,,,,,,,,,,,,,,,,,,,,,,,,,,,,,,,,,322.4726877999783,322.4880002999853,322.97115499997744,324.47006649998366,None,1,,,,,,,,,,,,,,,,,,,,3,001,2026-04-27_13h22.42.254,untitled,,2025.1.1,60.07849856245955,2026-04-27 13h22.53.195997 +0200,
C,4.wav,0,0,0,44,44,0,,,,,bloc_a.xlsx,None,1,,,,,,,,,,,,0,0,0,0,0,1,1,0,0,44,44,44,324.48648530000355,,,,,,,,,,,,,,,,,,,,,,,,,,,,,,,,,,,,,324.47150250000414,324.48648530000355,324.96939119999297,326.4682505999808,None,1,,,,,,,,,,,,,,,,,,,,3,001,2026-04-27_13h22.42.254,untitled,,2025.1.1,60.07849856245955,2026-04-27 13h22.53.195997 +0200,
Y,7.wav,0,1,0,45,45,0,,,,,bloc_a.xlsx,None,1,,,,,,,,,,,,0,0,0,0,0,1,1,0,0,45,45,45,326.48459939999157,,,,,,,,,,,,,,,,,,,,,,,,,,,,,,,,,,,,,326.46954489999916,326.48459939999157,326.96778219999396,328.46664460000466,None,1,,,,,,,,,,,,,,,,,,,,3,001,2026-04-27_13h22.42.254,untitled,,2025.1.1,60.07849856245955,2026-04-27 13h22.53.195997 +0200,
B,6.wav,0,0,0,46,46,0,,,,,bloc_a.xlsx,None,1,,,,,,,,,,,,0,0,0,0,0,1,1,0,0,46,46,46,328.4831201999914,,,,,,,,,,,,,,,,,,,,,,,,,,,,,,,,,,,,,328.4679717999825,328.4831201999914,328.9660956999869,330.4650810000021,None,1,,,,,,,,,,,,,,,,,,,,3,001,2026-04-27_13h22.42.254,untitled,,2025.1.1,60.07849856245955,2026-04-27 13h22.53.195997 +0200,
Y,5.wav,1,0,0,47,47,0,,,,,bloc_a.xlsx,space,1,0.96883239998715,0.15942380001069978,,,,,,,,,,0,0,0,0,0,1,1,0,0,47,47,47,330.48147709999466,,,,,,,,,,,,,,,,,,,,,,,,,,,,,,,,,,,,,330.46653539998806,330.48147709999466,330.9644943999883,332.4635625999945,space,1,0.96883239998715,0.15942380001069978,,,,,,,,,,,,,,,,,,3,001,2026-04-27_13h22.42.254,untitled,,2025.1.1,60.07849856245955,2026-04-27 13h22.53.195997 +0200,
T,7.wav,0,0,0,48,48,0,,,,,bloc_a.xlsx,None,1,,,,,,,,,,,,0,0,0,0,0,1,1,0,0,48,48,48,332.47984059999,,,,,,,,,,,,,,,,,,,,,,,,,,,,,,,,,,,,,332.4650028999895,332.47984059999,332.9628248999943,334.46190579998074,None,1,,,,,,,,,,,,,,,,,,,,3,001,2026-04-27_13h22.42.254,untitled,,2025.1.1,60.07849856245955,2026-04-27 13h22.53.195997 +0200,
N,2.wav,0,0,0,49,49,0,,,,,bloc_a.xlsx,None,1,,,,,,,,,,,,0,0,0,0,0,1,1,0,0,49,49,49,334.4781613999803,,,,,,,,,,,,,,,,,,,,,,,,,,,,,,,,,,,,,334.4637961999979,334.4781613999803,334.9611566999811,336.46014310000464,None,1,,,,,,,,,,,,,,,,,,,,3,001,2026-04-27_13h22.42.254,untitled,,2025.1.1,60.07849856245955,2026-04-27 13h22.53.195997 +0200,
,,,,,1,1,0,,,,,bloc_a.xlsx,,,,,,,,,,,,,,0,0,0,0,0,1,1,0,,,,,,,,,,,,,,,,,,,,,,,,,,,,,,,,,,,,,,,,,,,,,,,,,,,,,,,,,,,,,,,,,,,3,001,2026-04-27_13h22.42.254,untitled,,2025.1.1,60.07849856245955,2026-04-27 13h22.53.195997 +0200,
P,3.wav,0,0,0,0,0,0,,,,,bloc_b.xlsx,None,1,,,,,,,,,,,,0,0,0,0,0,2,2,2,0,0,0,0,336.4765873999859,,,,,,,,,,,,,,,,,,,,,,,,,,,,,,,,,,,,,336.47377329997835,336.4765873999859,336.95972059998894,338.4751267999818,None,1,,,338.47477919998346,,,,,,,,,,,,,,,,,3,001,2026-04-27_13h22.42.254,untitled,,2025.1.1,60.07849856245955,2026-04-27 13h22.53.195997 +0200,
N,1.wav,0,0,0,1,1,0,,,,,bloc_b.xlsx,space,1,1.3075233999988995,0.1522592999972403,,,,,,,,,,0,0,0,0,0,2,2,2,0,1,1,1,338.491692599986,,,,,,,,,,,,,,,,,,,,,,,,,,,,,,,,,,,,,338.47657430000254,338.491692599986,338.9745876999805,340.47347579998313,space,1,1.3075233999988995,0.1522592999972403,,,,,,,,,,,,,,,,,,3,001,2026-04-27_13h22.42.254,untitled,,2025.1.1,60.07849856245955,2026-04-27 13h22.53.195997 +0200,
U,2.wav,0,0,0,2,2,0,,,,,bloc_b.xlsx,None,1,,,,,,,,,,,,0,0,0,0,0,2,2,2,0,2,2,2,340.4899756999803,,,,,,,,,,,,,,,,,,,,,,,,,,,,,,,,,,,,,340.4748491999926,340.4899756999803,340.9730487999914,342.47184809998726,None,1,,,,,,,,,,,,,,,,,,,,3,001,2026-04-27_13h22.42.254,untitled,,2025.1.1,60.07849856245955,2026-04-27 13h22.53.195997 +0200,
J,6.wav,0,0,0,3,3,0,,,,,bloc_b.xlsx,None,1,,,,,,,,,,,,0,0,0,0,0,2,2,2,0,3,3,3,342.48829459998524,,,,,,,,,,,,,,,,,,,,,,,,,,,,,,,,,,,,,342.47312779998174,342.48829459998524,342.97116919999826,344.4698692999955,None,1,,,,,,,,,,,,,,,,,,,,3,001,2026-04-27_13h22.42.254,untitled,,2025.1.1,60.07849856245955,2026-04-27 13h22.53.195997 +0200,
U,2.wav,1,1,1,4,4,0,,,,,bloc_b.xlsx,space,1,1.3118307999975514,0.14204929998959415,,,,,,,,,,0,0,0,0,0,2,2,2,0,4,4,4,344.48670649999985,,,,,,,,,,,,,,,,,,,,,,,,,,,,,,,,,,,,,344.47110689998954,344.48670649999985,344.96945439997944,346.4684902000008,space,1,1.3118307999975514,0.14204929998959415,,,,,,,,,,,,,,,,,,3,001,2026-04-27_13h22.42.254,untitled,,2025.1.1,60.07849856245955,2026-04-27 13h22.53.195997 +0200,
F,8.wav,0,0,0,5,5,0,,,,,bloc_b.xlsx,None,1,,,,,,,,,,,,0,0,0,0,0,2,2,2,0,5,5,5,346.48515669998596,,,,,,,,,,,,,,,,,,,,,,,,,,,,,,,,,,,,,346.4705885000003,346.48515669998596,346.96794209998916,348.4669748999877,None,1,,,,,,,,,,,,,,,,,,,,3,001,2026-04-27_13h22.42.254,untitled,,2025.1.1,60.07849856245955,2026-04-27 13h22.53.195997 +0200,
V,5.wav,0,0,0,6,6,0,,,,,bloc_b.xlsx,None,1,,,,,,,,,,,,0,0,0,0,0,2,2,2,0,6,6,6,348.48345329999574,,,,,,,,,,,,,,,,,,,,,,,,,,,,,,,,,,,,,348.4684025000024,348.48345329999574,348.9663163999794,350.4652638999978,None,1,,,,,,,,,,,,,,,,,,,,3,001,2026-04-27_13h22.42.254,untitled,,2025.1.1,60.07849856245955,2026-04-27 13h22.53.195997 +0200,
F,7.wav,1,0,0,7,7,0,,,,,bloc_b.xlsx,None,0,,,,,,,,,,,,0,0,0,0,0,2,2,2,0,7,7,7,350.48171749999165,,,,,,,,,,,,,,,,,,,,,,,,,,,,,,,,,,,,,350.46670019999146,350.48171749999165,350.96461639998597,352.4634352999856,None,0,,,,,,,,,,,,,,,,,,,,3,001,2026-04-27_13h22.42.254,untitled,,2025.1.1,60.07849856245955,2026-04-27 13h22.53.195997 +0200,
P,2.wav,0,0,0,8,8,0,,,,,bloc_b.xlsx,None,1,,,,,,,,,,,,0,0,0,0,0,2,2,2,0,8,8,8,352.4801752999774,,,,,,,,,,,,,,,,,,,,,,,,,,,,,,,,,,,,,352.4656739999773,352.4801752999774,352.962981699995,354.46177150000585,None,1,,,354.46157590000075,,,,,,,,,,,,,,,,,3,001,2026-04-27_13h22.42.254,untitled,,2025.1.1,60.07849856245955,2026-04-27 13h22.53.195997 +0200,
N,7.wav,0,1,0,9,9,0,,,,,bloc_b.xlsx,None,1,,,,,,,,,,,,0,0,0,0,0,2,2,2,0,9,9,9,354.4785375999927,,,,,,,,,,,,,,,,,,,,,,,,,,,,,,,,,,,,,354.4632406999881,354.4785375999927,354.9613030999899,356.4604264999798,None,1,,,,,,,,,,,,,,,,,,,,3,001,2026-04-27_13h22.42.254,untitled,,2025.1.1,60.07849856245955,2026-04-27 13h22.53.195997 +0200,
C,5.wav,0,0,0,10,10,0,,,,,bloc_b.xlsx,None,1,,,,,,,,,,,,0,0,0,0,0,2,2,2,0,10,10,10,356.47679519999656,,,,,,,,,,,,,,,,,,,,,,,,,,,,,,,,,,,,,356.4621335999982,356.47679519999656,356.9596437999862,358.47535949997837,None,1,,,358.4752545999945,,,,,,,,,,,,,,,,,3,001,2026-04-27_13h22.42.254,untitled,,2025.1.1,60.07849856245955,2026-04-27 13h22.53.195997 +0200,
L,6.wav,0,0,0,11,11,0,,,,,bloc_b.xlsx,None,1,,,,,,,,,,,,0,0,0,0,0,2,2,2,0,11,11,11,358.49184459997923,,,,,,,,,,,,,,,,,,,,,,,,,,,,,,,,,,,,,358.47676180000417,358.49184459997923,358.9582780000055,360.473869199981,None,1,,,360.4737119000056,,,,,,,,,,,,,,,,,3,001,2026-04-27_13h22.42.254,untitled,,2025.1.1,60.07849856245955,2026-04-27 13h22.53.195997 +0200,
E,1.wav,0,0,0,12,12,0,,,,,bloc_b.xlsx,None,1,,,,,,,,,,,,0,0,0,0,0,2,2,2,0,12,12,12,360.49025159998564,,,,,,,,,,,,,,,,,,,,,,,,,,,,,,,,,,,,,360.4752787000034,360.49025159998564,360.97313239998766,362.4720808999846,None,1,,,,,,,,,,,,,,,,,,,,3,001,2026-04-27_13h22.42.254,untitled,,2025.1.1,60.07849856245955,2026-04-27 13h22.53.195997 +0200,
K,5.wav,0,0,0,13,13,0,,,,,bloc_b.xlsx,None,1,,,,,,,,,,,,0,0,0,0,0,2,2,2,0,13,13,13,362.4885360999906,,,,,,,,,,,,,,,,,,,,,,,,,,,,,,,,,,,,,362.47382449998986,362.4885360999906,362.9715026000049,364.4704092000029,None,1,,,,,,,,,,,,,,,,,,,,3,001,2026-04-27_13h22.42.254,untitled,,2025.1.1,60.07849856245955,2026-04-27 13h22.53.195997 +0200,
E,1.wav,1,1,1,14,14,0,,,,,bloc_b.xlsx,space,1,1.3736509000009391,0.1362459000083618,,,,,,,,,,0,0,0,0,0,2,2,2,0,14,14,14,364.48681179998675,,,,,,,,,,,,,,,,,,,,,,,,,,,,,,,,,,,,,364.4718476999842,364.48681179998675,364.9699011000048,366.46893429997726,space,1,1.3736509000009391,0.1362459000083618,,,,,,,,,,,,,,,,,,3,001,2026-04-27_13h22.42.254,untitled,,2025.1.1,60.07849856245955,2026-04-27 13h22.53.195997 +0200,
U,7.wav,0,0,0,15,15,0,,,,,bloc_b.xlsx,None,1,,,,,,,,,,,,0,0,0,0,0,2,2,2,0,15,15,15,366.48532360000536,,,,,,,,,,,,,,,,,,,,,,,,,,,,,,,,,,,,,366.4704608999891,366.48532360000536,366.9681822999846,368.46702049998567,None,1,,,,,,,,,,,,,,,,,,,,3,001,2026-04-27_13h22.42.254,untitled,,2025.1.1,60.07849856245955,2026-04-27 13h22.53.195997 +0200,
X,3.wav,0,0,0,16,16,0,,,,,bloc_b.xlsx,None,1,,,,,,,,,,,,0,0,0,0,0,2,2,2,0,16,16,16,368.4836950000026,,,,,,,,,,,,,,,,,,,,,,,,,,,,,,,,,,,,,368.4691581999941,368.4836950000026,368.96647949999897,370.46552299999166,None,1,,,,,,,,,,,,,,,,,,,,3,001,2026-04-27_13h22.42.254,untitled,,2025.1.1,60.07849856245955,2026-04-27 13h22.53.195997 +0200,
L,4.wav,0,0,0,17,17,0,,,,,bloc_b.xlsx,None,1,,,,,,,,,,,,0,0,0,0,0,2,2,2,0,17,17,17,370.4819582999917,,,,,,,,,,,,,,,,,,,,,,,,,,,,,,,,,,,,,370.46712869999465,370.4819582999917,370.96490679998533,372.4638926000043,None,1,,,,,,,,,,,,,,,,,,,,3,001,2026-04-27_13h22.42.254,untitled,,2025.1.1,60.07849856245955,2026-04-27 13h22.53.195997 +0200,
B,3.wav,0,1,0,18,18,0,,,,,bloc_b.xlsx,None,1,,,,,,,,,,,,0,0,0,0,0,2,2,2,0,18,18,18,372.48037439998006,,,,,,,,,,,,,,,,,,,,,,,,,,,,,,,,,,,,,372.46533389997785,372.48037439998006,372.96332899999106,374.4622982000001,None,1,,,,,,,,,,,,,,,,,,,,3,001,2026-04-27_13h22.42.254,untitled,,2025.1.1,60.07849856245955,2026-04-27 13h22.53.195997 +0200,
L,5.wav,1,0,0,19,19,0,,,,,bloc_b.xlsx,space,1,1.0099323999893386,0.13167709999834187,,,,,,,,,,0,0,0,0,0,2,2,2,0,19,19,19,374.47861819999525,,,,,,,,,,,,,,,,,,,,,,,,,,,,,,,,,,,,,374.46382549998816,374.47861819999525,374.9616951000062,376.4607020999829,space,1,1.0099323999893386,0.13167709999834187,,,,,,,,,,,,,,,,,,3,001,2026-04-27_13h22.42.254,untitled,,2025.1.1,60.07849856245955,2026-04-27 13h22.53.195997 +0200,
Q,2.wav,0,0,0,20,20,0,,,,,bloc_b.xlsx,None,1,,,,,,,,,,,,0,0,0,0,0,2,2,2,0,20,20,20,376.4770768999879,,,,,,,,,,,,,,,,,,,,,,,,,,,,,,,,,,,,,376.46200889998,376.4770768999879,376.9599904999777,378.459133700002,None,1,,,,,,,,,,,,,,,,,,,,3,001,2026-04-27_13h22.42.254,untitled,,2025.1.1,60.07849856245955,2026-04-27 13h22.53.195997 +0200,
B,7.wav,0,0,0,21,21,0,,,,,bloc_b.xlsx,None,1,,,,,,,,,,,,0,0,0,0,0,2,2,2,0,21,21,21,378.47543639998185,,,,,,,,,,,,,,,,,,,,,,,,,,,,,,,,,,,,,378.4605563999794,378.47543639998185,378.95845959999133,380.4740788000054,None,1,,,380.4738083999837,,,,,,,,,,,,,,,,,3,001,2026-04-27_13h22.42.254,untitled,,2025.1.1,60.07849856245955,2026-04-27 13h22.53.195997 +0200,
W,1.wav,0,0,0,22,22,0,,,,,bloc_b.xlsx,None,1,,,,,,,,,,,,0,0,0,0,0,2,2,2,0,22,22,22,380.49037809998845,,,,,,,,,,,,,,,,,,,,,,,,,,,,,,,,,,,,,380.4753437000036,380.49037809998845,380.9734461999906,382.47224790000473,None,1,,,,,,,,,,,,,,,,,,,,3,001,2026-04-27_13h22.42.254,untitled,,2025.1.1,60.07849856245955,2026-04-27 13h22.53.195997 +0200,
B,5.wav,1,0,0,23,23,0,,,,,bloc_b.xlsx,None,0,,,,,,,,,,,,0,0,0,0,0,2,2,2,0,23,23,23,382.48867309998604,,,,,,,,,,,,,,,,,,,,,,,,,,,,,,,,,,,,,382.47350940000615,382.48867309998604,382.97182869998505,384.47042119997786,None,0,,,,,,,,,,,,,,,,,,,,3,001,2026-04-27_13h22.42.254,untitled,,2025.1.1,60.07849856245955,2026-04-27 13h22.53.195997 +0200,
P,1.wav,0,1,0,24,24,0,,,,,bloc_b.xlsx,None,1,,,,,,,,,,,,0,0,0,0,0,2,2,2,0,24,24,24,384.48682580000605,,,,,,,,,,,,,,,,,,,,,,,,,,,,,,,,,,,,,384.4717490999901,384.48682580000605,384.97009399998933,386.4688598999928,None,1,,,,,,,,,,,,,,,,,,,,3,001,2026-04-27_13h22.42.254,untitled,,2025.1.1,60.07849856245955,2026-04-27 13h22.53.195997 +0200,
L,7.wav,0,0,0,25,25,0,,,,,bloc_b.xlsx,None,1,,,,,,,,,,,,0,0,0,0,0,2,2,2,0,25,25,25,386.48526769998716,,,,,,,,,,,,,,,,,,,,,,,,,,,,,,,,,,,,,386.4701306000061,386.48526769998716,386.968381099985,388.46755069997744,None,1,,,,,,,,,,,,,,,,,,,,3,001,2026-04-27_13h22.42.254,untitled,,2025.1.1,60.07849856245955,2026-04-27 13h22.53.195997 +0200,
D,6.wav,0,0,0,26,26,0,,,,,bloc_b.xlsx,None,1,,,,,,,,,,,,0,0,0,0,0,2,2,2,0,26,26,26,388.48373759997776,,,,,,,,,,,,,,,,,,,,,,,,,,,,,,,,,,,,,388.4690806999861,388.48373759997776,388.9667944999819,390.46566529999836,None,1,,,,,,,,,,,,,,,,,,,,3,001,2026-04-27_13h22.42.254,untitled,,2025.1.1,60.07849856245955,2026-04-27 13h22.53.195997 +0200,
S,3.wav,0,0,0,27,27,0,,,,,bloc_b.xlsx,None,1,,,,,,,,,,,,0,0,0,0,0,2,2,2,0,27,27,27,390.48212519998197,,,,,,,,,,,,,,,,,,,,,,,,,,,,,,,,,,,,,390.46710720000556,390.48212519998197,390.9649921999953,392.4640720000025,None,1,,,392.4639424000052,,,,,,,,,,,,,,,,,3,001,2026-04-27_13h22.42.254,untitled,,2025.1.1,60.07849856245955,2026-04-27 13h22.53.195997 +0200,
W,8.wav,0,0,0,28,28,0,,,,,bloc_b.xlsx,None,1,,,,,,,,,,,,0,0,0,0,0,2,2,2,0,28,28,28,392.48047089998727,,,,,,,,,,,,,,,,,,,,,,,,,,,,,,,,,,,,,392.46531709999545,392.48047089998727,392.9634124999866,394.46238310000626,None,1,,,,,,,,,,,,,,,,,,,,3,001,2026-04-27_13h22.42.254,untitled,,2025.1.1,60.07849856245955,2026-04-27 13h22.53.195997 +0200,
L,3.wav,0,1,0,29,29,0,,,,,bloc_b.xlsx,None,1,,,,,,,,,,,,0,0,0,0,0,2,2,2,0,29,29,29,394.47872759998427,,,,,,,,,,,,,,,,,,,,,,,,,,,,,,,,,,,,,394.4637705999776,394.47872759998427,394.9618325000047,396.46083779999753,None,1,,,,,,,,,,,,,,,,,,,,3,001,2026-04-27_13h22.42.254,untitled,,2025.1.1,60.07849856245955,2026-04-27 13h22.53.195997 +0200,
W,6.wav,1,0,0,30,30,0,,,,,bloc_b.xlsx,space,1,1.3001201000006404,0.12240670001483522,,,,,,,,,,0,0,0,0,0,2,2,2,0,30,30,30,396.4771508999984,,,,,,,,,,,,,,,,,,,,,,,,,,,,,,,,,,,,,396.46208719999413,396.4771508999984,396.9602601999941,398.45919719999074,space,1,1.3001201000006404,0.12240670001483522,,,,,,,,,,,,,,,,,,3,001,2026-04-27_13h22.42.254,untitled,,2025.1.1,60.07849856245955,2026-04-27 13h22.53.195997 +0200,
H,1.wav,0,0,0,31,31,0,,,,,bloc_b.xlsx,None,1,,,,,,,,,,,,0,0,0,0,0,2,2,2,0,31,31,31,398.47565059998306,,,,,,,,,,,,,,,,,,,,,,,,,,,,,,,,,,,,,398.4605561000062,398.47565059998306,398.9584646000003,400.473951699998,None,1,,,400.45732580000185,,,,,,,,,,,,,,,,,3,001,2026-04-27_13h22.42.254,untitled,,2025.1.1,60.07849856245955,2026-04-27 13h22.53.195997 +0200,
Y,4.wav,0,0,0,32,32,0,,,,,bloc_b.xlsx,None,1,,,,,,,,,,,,0,0,0,0,0,2,2,2,0,32,32,32,400.4906823000056,,,,,,,,,,,,,,,,,,,,,,,,,,,,,,,,,,,,,400.4752990999841,400.4906823000056,400.9735858000058,402.4723774000013,None,1,,,,,,,,,,,,,,,,,,,,3,001,2026-04-27_13h22.42.254,untitled,,2025.1.1,60.07849856245955,2026-04-27 13h22.53.195997 +0200,
R,1.wav,0,1,0,33,33,0,,,,,bloc_b.xlsx,None,1,,,,,,,,,,,,0,0,0,0,0,2,2,2,0,33,33,33,402.48905549998744,,,,,,,,,,,,,,,,,,,,,,,,,,,,,,,,,,,,,402.4737017999869,402.48905549998744,402.9717893000052,404.4707925999828,None,1,,,,,,,,,,,,,,,,,,,,3,001,2026-04-27_13h22.42.254,untitled,,2025.1.1,60.07849856245955,2026-04-27 13h22.53.195997 +0200,
J,8.wav,0,0,0,34,34,0,,,,,bloc_b.xlsx,None,1,,,,,,,,,,,,0,0,0,0,0,2,2,2,0,34,34,34,404.4872822999896,,,,,,,,,,,,,,,,,,,,,,,,,,,,,,,,,,,,,404.4722986999841,404.4872822999896,404.9703163999948,406.4692806999956,None,1,,,,,,,,,,,,,,,,,,,,3,001,2026-04-27_13h22.42.254,untitled,,2025.1.1,60.07849856245955,2026-04-27 13h22.53.195997 +0200,
R,5.wav,1,0,0,35,35,0,,,,,bloc_b.xlsx,space,1,1.6506404999818187,0.13080450001871213,,,,,,,,,,0,0,0,0,0,2,2,2,0,35,35,35,406.48559629998636,,,,,,,,,,,,,,,,,,,,,,,,,,,,,,,,,,,,,406.4707930999866,406.48559629998636,406.9685466999945,408.467485799978,space,1,1.6506404999818187,0.13080450001871213,,,,,,,,,,,,,,,,,,3,001,2026-04-27_13h22.42.254,untitled,,2025.1.1,60.07849856245955,2026-04-27 13h22.53.195997 +0200,
S,2.wav,0,0,0,36,36,0,,,,,bloc_b.xlsx,None,1,,,,,,,,,,,,0,0,0,0,0,2,2,2,0,36,36,36,408.48411950000445,,,,,,,,,,,,,,,,,,,,,,,,,,,,,,,,,,,,,408.46948469997733,408.48411950000445,408.9671215999988,410.4658656999818,None,1,,,,,,,,,,,,,,,,,,,,3,001,2026-04-27_13h22.42.254,untitled,,2025.1.1,60.07849856245955,2026-04-27 13h22.53.195997 +0200,
W,5.wav,0,1,0,37,37,0,,,,,bloc_b.xlsx,None,1,,,,,,,,,,,,0,0,0,0,0,2,2,2,0,37,37,37,410.4823261999991,,,,,,,,,,,,,,,,,,,,,,,,,,,,,,,,,,,,,410.46718330000294,410.4823261999991,410.9651353999798,412.46423300000606,None,1,,,412.46410189999733,,,,,,,,,,,,,,,,,3,001,2026-04-27_13h22.42.254,untitled,,2025.1.1,60.07849856245955,2026-04-27 13h22.53.195997 +0200,
S,8.wav,1,0,0,38,38,0,,,,,bloc_b.xlsx,space,1,1.2195610999769997,0.18003170000156388,,,,,,,,,,0,0,0,0,0,2,2,2,0,38,38,38,412.4807213000022,,,,,,,,,,,,,,,,,,,,,,,,,,,,,,,,,,,,,412.46575619999203,412.4807213000022,412.9637176999822,414.46245709998766,space,1,1.2195610999769997,0.18003170000156388,,,,,,,,,,,,,,,,,,3,001,2026-04-27_13h22.42.254,untitled,,2025.1.1,60.07849856245955,2026-04-27 13h22.53.195997 +0200,
V,1.wav,0,0,0,39,39,0,,,,,bloc_b.xlsx,None,1,,,,,,,,,,,,0,0,0,0,0,2,2,2,0,39,39,39,414.47912689999794,,,,,,,,,,,,,,,,,,,,,,,,,,,,,,,,,,,,,414.463857499999,414.47912689999794,414.96197589999065,416.46092029998545,None,1,,,,,,,,,,,,,,,,,,,,3,001,2026-04-27_13h22.42.254,untitled,,2025.1.1,60.07849856245955,2026-04-27 13h22.53.195997 +0200,
M,4.wav,0,0,0,40,40,0,,,,,bloc_b.xlsx,None,1,,,,,,,,,,,,0,0,0,0,0,2,2,2,0,40,40,40,416.4775420999795,,,,,,,,,,,,,,,,,,,,,,,,,,,,,,,,,,,,,416.4624716999824,416.4775420999795,416.9604443999997,418.4594647999911,None,1,,,,,,,,,,,,,,,,,,,,3,001,2026-04-27_13h22.42.254,untitled,,2025.1.1,60.07849856245955,2026-04-27 13h22.53.195997 +0200,
H,5.wav,0,0,0,41,41,0,,,,,bloc_b.xlsx,None,1,,,,,,,,,,,,0,0,0,0,0,2,2,2,0,41,41,41,418.47586360000423,,,,,,,,,,,,,,,,,,,,,,,,,,,,,,,,,,,,,418.46105769998394,418.47586360000423,418.9586696999904,420.4744911000016,None,1,,,420.457605899981,,,,,,,,,,,,,,,,,3,001,2026-04-27_13h22.42.254,untitled,,2025.1.1,60.07849856245955,2026-04-27 13h22.53.195997 +0200,
S,2.wav,0,0,0,42,42,0,,,,,bloc_b.xlsx,None,1,,,,,,,,,,,,0,0,0,0,0,2,2,2,0,42,42,42,420.4907717999886,,,,,,,,,,,,,,,,,,,,,,,,,,,,,,,,,,,,,420.4761754999927,420.4907717999886,420.9739687999827,422.4726820999931,None,1,,,,,,,,,,,,,,,,,,,,3,001,2026-04-27_13h22.42.254,untitled,,2025.1.1,60.07849856245955,2026-04-27 13h22.53.195997 +0200,
H,5.wav,1,1,1,43,43,0,,,,,bloc_b.xlsx,space,1,1.1508717999968212,0.15289850000408478,,,,,,,,,,0,0,0,0,0,2,2,2,0,43,43,43,422.4892540999863,,,,,,,,,,,,,,,,,,,,,,,,,,,,,,,,,,,,,422.4738897999923,422.4892540999863,422.9722422999912,424.47159040000406,space,1,1.1508717999968212,0.15289850000408478,,,,,,,,,,,,,,,,,,3,001,2026-04-27_13h22.42.254,untitled,,2025.1.1,60.07849856245955,2026-04-27 13h22.53.195997 +0200,
U,6.wav,0,0,0,44,44,0,,,,,bloc_b.xlsx,None,1,,,,,,,,,,,,0,0,0,0,0,2,2,2,0,44,44,44,424.4875102999795,,,,,,,,,,,,,,,,,,,,,,,,,,,,,,,,,,,,,424.4731959000055,424.4875102999795,424.9705137999845,426.4696502999868,None,1,,,,,,,,,,,,,,,,,,,,3,001,2026-04-27_13h22.42.254,untitled,,2025.1.1,60.07849856245955,2026-04-27 13h22.53.195997 +0200,
W,3.wav,0,0,0,45,45,0,,,,,bloc_b.xlsx,None,1,,,,,,,,,,,,0,0,0,0,0,2,2,2,0,45,45,45,426.4858713999856,,,,,,,,,,,,,,,,,,,,,,,,,,,,,,,,,,,,,426.47096479998436,426.4858713999856,426.96871679998003,428.4678609999828,None,1,,,,,,,,,,,,,,,,,,,,3,001,2026-04-27_13h22.42.254,untitled,,2025.1.1,60.07849856245955,2026-04-27 13h22.53.195997 +0200,
J,6.wav,0,1,0,46,46,0,,,,,bloc_b.xlsx,None,1,,,,,,,,,,,,0,0,0,0,0,2,2,2,0,46,46,46,428.4840993999969,,,,,,,,,,,,,,,,,,,,,,,,,,,,,,,,,,,,,428.4692231999943,428.4840993999969,428.9672157999885,430.4660643999814,None,1,,,,,,,,,,,,,,,,,,,,3,001,2026-04-27_13h22.42.254,untitled,,2025.1.1,60.07849856245955,2026-04-27 13h22.53.195997 +0200,
M,5.wav,0,0,0,47,47,0,,,,,bloc_b.xlsx,None,1,,,,,,,,,,,,0,0,0,0,0,2,2,2,0,47,47,47,430.4824779999908,,,,,,,,,,,,,,,,,,,,,,,,,,,,,,,,,,,,,430.46745289998944,430.4824779999908,430.96561149999616,432.4643769999966,None,1,,,,,,,,,,,,,,,,,,,,3,001,2026-04-27_13h22.42.254,untitled,,2025.1.1,60.07849856245955,2026-04-27 13h22.53.195997 +0200,
J,1.wav,1,0,0,48,48,0,,,,,bloc_b.xlsx,space,1,1.2855896000110079,0.16694100000313483,,,,,,,,,,0,0,0,0,0,2,2,2,0,48,48,48,432.48098009999376,,,,,,,,,,,,,,,,,,,,,,,,,,,,,,,,,,,,,432.4658943999966,432.48098009999376,432.9638644999941,434.4630447999807,space,1,1.2855896000110079,0.16694100000313483,,,,,,,,,,,,,,,,,,3,001,2026-04-27_13h22.42.254,untitled,,2025.1.1,60.07849856245955,2026-04-27 13h22.53.195997 +0200,
B,7.wav,0,0,0,49,49,0,,,,,bloc_b.xlsx,None,1,,,,,,,,,,,,0,0,0,0,0,2,2,2,0,49,49,49,434.4793235999823,,,,,,,,,,,,,,,,,,,,,,,,,,,,,,,,,,,,,434.4645083999785,434.4793235999823,434.96229409999796,436.46118959999876,None,1,,,,,,,,,,,,,,,,,,,,3,001,2026-04-27_13h22.42.254,untitled,,2025.1.1,60.07849856245955,2026-04-27 13h22.53.195997 +0200,
,,,,,2,2,0,,,,,bloc_b.xlsx,,,,,,,,,,,,,,0,0,0,0,0,2,2,2,,,,,,,,,,,,,,,,,,,,,,,,,,,,,,,,,,,,,,,,,,,,,,,,,,,,,,,,,,,,,,,,,,,3,001,2026-04-27_13h22.42.254,untitled,,2025.1.1,60.07849856245955,2026-04-27 13h22.53.195997 +0200,
,,,,,0,0,0,,,,,,,,,,5.0,6.6747079999768175,1,[7.853552299988223],[7.853557399997953],,,,,0,0,0,0,,,,,,,,,,,,,,,,,,,,,,,,,,,,,,,,,,,,,,,,,,,,,,,,,,,,,,,436.4737656999787,436.51943250000477,436.51943250000477,436.51943250000477,436.51943250000477,436.51943250000477,444.37364879998495,5.0,6.6747079999768175,1,[7.853552299988223],[7.853557399997953],,,,,3,001,2026-04-27_13h22.42.254,untitled,,2025.1.1,60.07849856245955,2026-04-27 13h22.53.195997 +0200,
Z,6.wav,0,0,0,0,0,0,,,,,bloc_c.xlsx,None,1,,,,,,,,,,,,1,0,1,0,0,0,0,1,0,0,0,0,444.38746870000614,,,,,,,,,,,,,,,,,,,,,,,,,,,,,,,,,,,,,444.38634139997885,444.38746870000614,444.8874382999784,446.38654039998073,None,1,,,,,,,,,,,,,,,,,,,,3,001,2026-04-27_13h22.42.254,untitled,,2025.1.1,60.07849856245955,2026-04-27 13h22.53.195997 +0200,
M,7.wav,0,0,0,1,1,0,,,,,bloc_c.xlsx,None,1,,,,,,,,,,,,1,0,1,0,0,0,0,1,0,1,1,1,446.4028477999964,,,,,,,,,,,,,,,,,,,,,,,,,,,,,,,,,,,,,446.38791859999765,446.4028477999964,446.88582189998124,448.38471319997916,None,1,,,,,,,,,,,,,,,,,,,,3,001,2026-04-27_13h22.42.254,untitled,,2025.1.1,60.07849856245955,2026-04-27 13h22.53.195997 +0200,
Z,1.wav,1,0,0,2,2,0,,,,,bloc_c.xlsx,space,1,1.3464399999938905,0.14221300001372583,,,,,,,,,,1,0,1,0,0,0,0,1,0,2,2,2,448.4012560999836,,,,,,,,,,,,,,,,,,,,,,,,,,,,,,,,,,,,,448.3859771999996,448.4012560999836,448.8841586000053,450.38311769999564,space,1,1.3464399999938905,0.14221300001372583,,,,,,,,,,,,,,,,,,3,001,2026-04-27_13h22.42.254,untitled,,2025.1.1,60.07849856245955,2026-04-27 13h22.53.195997 +0200,
E,8.wav,0,0,0,3,3,0,,,,,bloc_c.xlsx,None,1,,,,,,,,,,,,1,0,1,0,0,0,0,1,0,3,3,3,450.39970819998416,,,,,,,,,,,,,,,,,,,,,,,,,,,,,,,,,,,,,450.38439369999105,450.39970819998416,450.88250649999827,452.3814112999826,None,1,,,,,,,,,,,,,,,,,,,,3,001,2026-04-27_13h22.42.254,untitled,,2025.1.1,60.07849856245955,2026-04-27 13h22.53.195997 +0200,
R,3.wav,0,0,0,4,4,0,,,,,bloc_c.xlsx,None,1,,,,,,,,,,,,1,0,1,0,0,0,0,1,0,4,4,4,452.3979619999882,,,,,,,,,,,,,,,,,,,,,,,,,,,,,,,,,,,,,452.38271249999525,452.3979619999882,452.88091929999064,454.37994210000033,None,1,,,,,,,,,,,,,,,,,,,,3,001,2026-04-27_13h22.42.254,untitled,,2025.1.1,60.07849856245955,2026-04-27 13h22.53.195997 +0200,
J,8.wav,0,1,0,5,5,0,,,,,bloc_c.xlsx,None,1,,,,,,,,,,,,1,0,1,0,0,0,0,1,0,5,5,5,454.3963203000021,,,,,,,,,,,,,,,,,,,,,,,,,,,,,,,,,,,,,454.38114749998203,454.3963203000021,454.87919639999745,456.37818450000486,None,1,,,,,,,,,,,,,,,,,,,,3,001,2026-04-27_13h22.42.254,untitled,,2025.1.1,60.07849856245955,2026-04-27 13h22.53.195997 +0200,
R,5.wav,1,0,0,6,6,0,,,,,bloc_c.xlsx,space,1,1.7127698000113014,0.12785439999424852,,,,,,,,,,1,0,1,0,0,0,0,1,0,6,6,6,456.3947193000058,,,,,,,,,,,,,,,,,,,,,,,,,,,,,,,,,,,,,456.3796091999975,456.3947193000058,456.8775678999955,458.37659099997836,space,1,1.7127698000113014,0.12785439999424852,,,,,,,,,,,,,,,,,,3,001,2026-04-27_13h22.42.254,untitled,,2025.1.1,60.07849856245955,2026-04-27 13h22.53.195997 +0200,
Q,2.wav,0,0,0,7,7,0,,,,,bloc_c.xlsx,None,1,,,,,,,,,,,,1,0,1,0,0,0,0,1,0,7,7,7,458.3930492999789,,,,,,,,,,,,,,,,,,,,,,,,,,,,,,,,,,,,,458.37796439998783,458.3930492999789,458.8759209999989,460.37486819998594,None,1,,,,,,,,,,,,,,,,,,,,3,001,2026-04-27_13h22.42.254,untitled,,2025.1.1,60.07849856245955,2026-04-27 13h22.53.195997 +0200,
H,6.wav,0,0,0,8,8,0,,,,,bloc_c.xlsx,None,1,,,,,,,,,,,,1,0,1,0,0,0,0,1,0,8,8,8,460.3914375999884,,,,,,,,,,,,,,,,,,,,,,,,,,,,,,,,,,,,,460.37652140000137,460.3914375999884,460.8742510000011,462.38969009998254,None,1,,,462.3895977999782,,,,,,,,,,,,,,,,,3,001,2026-04-27_13h22.42.254,untitled,,2025.1.1,60.07849856245955,2026-04-27 13h22.53.195997 +0200,
U,2.wav,0,1,0,9,9,0,,,,,bloc_c.xlsx,None,1,,,,,,,,,,,,1,0,1,0,0,0,0,1,0,9,9,9,462.4063694999786,,,,,,,,,,,,,,,,,,,,,,,,,,,,,,,,,,,,,462.39094539999496,462.4063694999786,462.8892255999963,464.388011300005,None,1,,,,,,,,,,,,,,,,,,,,3,001,2026-04-27_13h22.42.254,untitled,,2025.1.1,60.07849856245955,2026-04-27 13h22.53.195997 +0200,
H,3.wav,1,0,0,10,10,0,,,,,bloc_c.xlsx,space,1,1.857010599982459,None,,,,,,,,,,1,0,1,0,0,0,0,1,0,10,10,10,464.4044842000003,,,,,,,,,,,,,,,,,,,,,,,,,,,,,,,,,,,,,464.38925389997894,464.4044842000003,464.88757089999854,466.3863982000039,space,1,1.857010599982459,None,,,,,,,,,,,,,,,,,,3,001,2026-04-27_13h22.42.254,untitled,,2025.1.1,60.07849856245955,2026-04-27 13h22.53.195997 +0200,
Z,6.wav,0,0,0,11,11,0,,,,,bloc_c.xlsx,None,1,,,,,,,,,,,,1,0,1,0,0,0,0,1,0,11,11,11,466.4029152999865,,,,,,,,,,,,,,,,,,,,,,,,,,,,,,,,,,,,,466.38782000000356,466.4029152999865,466.8859230999951,468.38503949998994,None,1,,,,,,,,,,,,,,,,,,,,3,001,2026-04-27_13h22.42.254,untitled,,2025.1.1,60.07849856245955,2026-04-27 13h22.53.195997 +0200,
Q,2.wav,0,0,0,12,12,0,,,,,bloc_c.xlsx,None,1,,,,,,,,,,,,1,0,1,0,0,0,0,1,0,12,12,12,468.40144479999435,,,,,,,,,,,,,,,,,,,,,,,,,,,,,,,,,,,,,468.3865225999907,468.40144479999435,468.88434399999096,470.38332100000116,None,1,,,,,,,,,,,,,,,,,,,,3,001,2026-04-27_13h22.42.254,untitled,,2025.1.1,60.07849856245955,2026-04-27 13h22.53.195997 +0200,
Z,1.wav,1,0,0,13,13,0,,,,,bloc_c.xlsx,space,1,1.1907355000148527,0.1750465999939479,,,,,,,,,,1,0,1,0,0,0,0,1,0,13,13,13,470.39973259999533,,,,,,,,,,,,,,,,,,,,,,,,,,,,,,,,,,,,,470.3846877999895,470.39973259999533,470.8827467999945,472.38188149998314,space,1,1.1907355000148527,0.1750465999939479,,,,,,,,,,,,,,,,,,3,001,2026-04-27_13h22.42.254,untitled,,2025.1.1,60.07849856245955,2026-04-27 13h22.53.195997 +0200,
N,2.wav,0,1,0,14,14,0,,,,,bloc_c.xlsx,None,1,,,,,,,,,,,,1,0,1,0,0,0,0,1,0,14,14,14,472.3979070999776,,,,,,,,,,,,,,,,,,,,,,,,,,,,,,,,,,,,,472.3834064999828,472.3979070999776,472.8809649999894,474.3800896999892,None,1,,,,,,,,,,,,,,,,,,,,3,001,2026-04-27_13h22.42.254,untitled,,2025.1.1,60.07849856245955,2026-04-27 13h22.53.195997 +0200,
U,4.wav,0,0,0,15,15,0,,,,,bloc_c.xlsx,None,1,,,,,,,,,,,,1,0,1,0,0,0,0,1,0,15,15,15,474.3963655999978,,,,,,,,,,,,,,,,,,,,,,,,,,,,,,,,,,,,,474.3812795999984,474.3963655999978,474.8793882000027,476.37830589999794,None,1,,,,,,,,,,,,,,,,,,,,3,001,2026-04-27_13h22.42.254,untitled,,2025.1.1,60.07849856245955,2026-04-27 13h22.53.195997 +0200,
G,1.wav,0,0,0,16,16,0,,,,,bloc_c.xlsx,None,1,,,,,,,,,,,,1,0,1,0,0,0,0,1,0,16,16,16,476.39476349999313,,,,,,,,,,,,,,,,,,,,,,,,,,,,,,,,,,,,,476.3795855999924,476.39476349999313,476.8778975000023,478.3767562999856,None,1,,,,,,,,,,,,,,,,,,,,3,001,2026-04-27_13h22.42.254,untitled,,2025.1.1,60.07849856245955,2026-04-27 13h22.53.195997 +0200,
P,5.wav,0,0,0,17,17,0,,,,,bloc_c.xlsx,None,1,,,,,,,,,,,,1,0,1,0,0,0,0,1,0,17,17,17,478.39309699999285,,,,,,,,,,,,,,,,,,,,,,,,,,,,,,,,,,,,,478.3789271999849,478.39309699999285,478.87612839997746,480.3751609000028,None,1,,,,,,,,,,,,,,,,,,,,3,001,2026-04-27_13h22.42.254,untitled,,2025.1.1,60.07849856245955,2026-04-27 13h22.53.195997 +0200,
G,1.wav,1,1,1,18,18,0,,,,,bloc_c.xlsx,None,0,,,,,,,,,,,,1,0,1,0,0,0,0,1,0,18,18,18,480.3914285999781,,,,,,,,,,,,,,,,,,,,,,,,,,,,,,,,,,,,,480.37648000000627,480.3914285999781,480.8746415999776,482.3900050999946,None,0,,,482.3898801000032,,,,,,,,,,,,,,,,,3,001,2026-04-27_13h22.42.254,untitled,,2025.1.1,60.07849856245955,2026-04-27 13h22.53.195997 +0200,
C,2.wav,0,0,0,19,19,0,,,,,bloc_c.xlsx,None,1,,,,,,,,,,,,1,0,1,0,0,0,0,1,0,19,19,19,482.40661619999446,,,,,,,,,,,,,,,,,,,,,,,,,,,,,,,,,,,,,482.39152730000205,482.40661619999446,482.8727488000004,484.3882084999932,None,1,,,484.38801819999935,,,,,,,,,,,,,,,,,3,001,2026-04-27_13h22.42.254,untitled,,2025.1.1,60.07849856245955,2026-04-27 13h22.53.195997 +0200,
T,3.wav,0,0,0,20,20,0,,,,,bloc_c.xlsx,None,1,,,,,,,,,,,,1,0,1,0,0,0,0,1,0,20,20,20,484.4050549999811,,,,,,,,,,,,,,,,,,,,,,,,,,,,,,,,,,,,,484.3894524000061,484.4050549999811,484.88787750000483,486.3868703999906,None,1,,,,,,,,,,,,,,,,,,,,3,001,2026-04-27_13h22.42.254,untitled,,2025.1.1,60.07849856245955,2026-04-27 13h22.53.195997 +0200,
B,2.wav,0,1,0,21,21,0,,,,,bloc_c.xlsx,None,1,,,,,,,,,,,,1,0,1,0,0,0,0,1,0,21,21,21,486.4033262000012,,,,,,,,,,,,,,,,,,,,,,,,,,,,,,,,,,,,,486.38812220000545,486.4033262000012,486.8860860999848,488.3849947999988,None,1,,,,,,,,,,,,,,,,,,,,3,001,2026-04-27_13h22.42.254,untitled,,2025.1.1,60.07849856245955,2026-04-27 13h22.53.195997 +0200,
L,4.wav,0,0,0,22,22,0,,,,,bloc_c.xlsx,None,1,,,,,,,,,,,,1,0,1,0,0,0,0,1,0,22,22,22,488.4017019000021,,,,,,,,,,,,,,,,,,,,,,,,,,,,,,,,,,,,,488.38622339998255,488.4017019000021,488.88451370000257,490.38350470000296,None,1,,,,,,,,,,,,,,,,,,,,3,001,2026-04-27_13h22.42.254,untitled,,2025.1.1,60.07849856245955,2026-04-27 13h22.53.195997 +0200,
F,3.wav,0,0,0,23,23,0,,,,,bloc_c.xlsx,None,1,,,,,,,,,,,,1,0,1,0,0,0,0,1,0,23,23,23,490.40002469997853,,,,,,,,,,,,,,,,,,,,,,,,,,,,,,,,,,,,,490.38487029998214,490.40002469997853,490.88286019998486,492.3819017999922,None,1,,,,,,,,,,,,,,,,,,,,3,001,2026-04-27_13h22.42.254,untitled,,2025.1.1,60.07849856245955,2026-04-27 13h22.53.195997 +0200,
T,4.wav,0,1,0,24,24,0,,,,,bloc_c.xlsx,None,1,,,,,,,,,,,,1,0,1,0,0,0,0,1,0,24,24,24,492.39842439998756,,,,,,,,,,,,,,,,,,,,,,,,,,,,,,,,,,,,,492.38327109999955,492.39842439998756,492.881338599982,494.3801895999932,None,1,,,,,,,,,,,,,,,,,,,,3,001,2026-04-27_13h22.42.254,untitled,,2025.1.1,60.07849856245955,2026-04-27 13h22.53.195997 +0200,
F,6.wav,1,0,0,25,25,0,,,,,bloc_c.xlsx,None,0,,,,,,,,,,,,1,0,1,0,0,0,0,1,0,25,25,25,494.3968476000009,,,,,,,,,,,,,,,,,,,,,,,,,,,,,,,,,,,,,494.3822034999903,494.3968476000009,494.87964369999827,496.3785854000016,None,0,,,,,,,,,,,,,,,,,,,,3,001,2026-04-27_13h22.42.254,untitled,,2025.1.1,60.07849856245955,2026-04-27 13h22.53.195997 +0200,
D,5.wav,0,0,0,26,26,0,,,,,bloc_c.xlsx,None,1,,,,,,,,,,,,1,0,1,0,0,0,0,1,0,26,26,26,496.39510910000536,,,,,,,,,,,,,,,,,,,,,,,,,,,,,,,,,,,,,496.3804715999868,496.39510910000536,496.877939900005,498.3769190000021,None,1,,,,,,,,,,,,,,,,,,,,3,001,2026-04-27_13h22.42.254,untitled,,2025.1.1,60.07849856245955,2026-04-27 13h22.53.195997 +0200,
G,6.wav,0,1,0,27,27,0,,,,,bloc_c.xlsx,None,1,,,,,,,,,,,,1,0,1,0,0,0,0,1,0,27,27,27,498.3935092999891,,,,,,,,,,,,,,,,,,,,,,,,,,,,,,,,,,,,,498.3782338000019,498.3935092999891,498.87627129998873,500.3752120999852,None,1,,,,,,,,,,,,,,,,,,,,3,001,2026-04-27_13h22.42.254,untitled,,2025.1.1,60.07849856245955,2026-04-27 13h22.53.195997 +0200,
E,2.wav,0,0,0,28,28,0,,,,,bloc_c.xlsx,None,1,,,,,,,,,,,,1,0,1,0,0,0,0,1,0,28,28,28,500.3918013999937,,,,,,,,,,,,,,,,,,,,,,,,,,,,,,,,,,,,,500.3766663999995,500.3918013999937,500.87469870000496,502.3906578999886,None,1,,,502.3901786999777,,,,,,,,,,,,,,,,,3,001,2026-04-27_13h22.42.254,untitled,,2025.1.1,60.07849856245955,2026-04-27 13h22.53.195997 +0200,
G,8.wav,1,0,0,29,29,0,,,,,bloc_c.xlsx,space,1,1.3287104000046384,0.1452864999882877,,,,,,,,,,1,0,1,0,0,0,0,1,0,29,29,29,502.4067343999923,,,,,,,,,,,,,,,,,,,,,,,,,,,,,,,,,,,,,502.39193119999254,502.4067343999923,502.8730801999918,504.3887893999927,space,1,1.3287104000046384,0.1452864999882877,504.3884752999875,,,,,,,,,,,,,,,,,3,001,2026-04-27_13h22.42.254,untitled,,2025.1.1,60.07849856245955,2026-04-27 13h22.53.195997 +0200,
S,5.wav,0,0,0,30,30,0,,,,,bloc_c.xlsx,None,1,,,,,,,,,,,,1,0,1,0,0,0,0,1,0,30,30,30,504.40508840000257,,,,,,,,,,,,,,,,,,,,,,,,,,,,,,,,,,,,,504.39010530000087,504.40508840000257,504.8880809999828,506.38685749997967,None,1,,,,,,,,,,,,,,,,,,,,3,001,2026-04-27_13h22.42.254,untitled,,2025.1.1,60.07849856245955,2026-04-27 13h22.53.195997 +0200,
N,1.wav,0,0,0,31,31,0,,,,,bloc_c.xlsx,None,1,,,,,,,,,,,,1,0,1,0,0,0,0,1,0,31,31,31,506.40347219997784,,,,,,,,,,,,,,,,,,,,,,,,,,,,,,,,,,,,,506.38809009999386,506.40347219997784,506.88646509998944,508.38537119998364,None,1,,,,,,,,,,,,,,,,,,,,3,001,2026-04-27_13h22.42.254,untitled,,2025.1.1,60.07849856245955,2026-04-27 13h22.53.195997 +0200,
V,2.wav,0,0,0,32,32,0,,,,,bloc_c.xlsx,None,1,,,,,,,,,,,,1,0,1,0,0,0,0,1,0,32,32,32,508.401779399981,,,,,,,,,,,,,,,,,,,,,,,,,,,,,,,,,,,,,508.3868094999925,508.401779399981,508.8847595999832,510.38421210000524,None,1,,,,,,,,,,,,,,,,,,,,3,001,2026-04-27_13h22.42.254,untitled,,2025.1.1,60.07849856245955,2026-04-27 13h22.53.195997 +0200,
X,1.wav,0,1,0,33,33,0,,,,,bloc_c.xlsx,None,1,,,,,,,,,,,,1,0,1,0,0,0,0,1,0,33,33,33,510.4001378999965,,,,,,,,,,,,,,,,,,,,,,,,,,,,,,,,,,,,,510.385480500001,510.4001378999965,510.88326000000234,512.3822694999981,None,1,,,,,,,,,,,,,,,,,,,,3,001,2026-04-27_13h22.42.254,untitled,,2025.1.1,60.07849856245955,2026-04-27 13h22.53.195997 +0200,
A,4.wav,0,0,0,34,34,0,,,,,bloc_c.xlsx,None,1,,,,,,,,,,,,1,0,1,0,0,0,0,1,0,34,34,34,512.398687399982,,,,,,,,,,,,,,,,,,,,,,,,,,,,,,,,,,,,,512.3838398999942,512.398687399982,512.881507699989,514.3804630999803,None,1,,,,,,,,,,,,,,,,,,,,3,001,2026-04-27_13h22.42.254,untitled,,2025.1.1,60.07849856245955,2026-04-27 13h22.53.195997 +0200,
R,2.wav,0,0,0,35,35,0,,,,,bloc_c.xlsx,None,1,,,,,,,,,,,,1,0,1,0,0,0,0,1,0,35,35,35,514.3970163000049,,,,,,,,,,,,,,,,,,,,,,,,,,,,,,,,,,,,,514.3823744999827,514.3970163000049,514.8799903999898,516.3788318999868,None,1,,,,,,,,,,,,,,,,,,,,3,001,2026-04-27_13h22.42.254,untitled,,2025.1.1,60.07849856245955,2026-04-27 13h22.53.195997 +0200,
A,6.wav,1,0,0,36,36,0,,,,,bloc_c.xlsx,space,1,1.3517964000056963,0.14184430000022985,,,,,,,,,,1,0,1,0,0,0,0,1,0,36,36,36,516.3953953000018,,,,,,,,,,,,,,,,,,,,,,,,,,,,,,,,,,,,,516.3801949000044,516.3953953000018,516.8784557000035,518.3771031999786,space,1,1.3517964000056963,0.14184430000022985,,,,,,,,,,,,,,,,,,3,001,2026-04-27_13h22.42.254,untitled,,2025.1.1,60.07849856245955,2026-04-27 13h22.53.195997 +0200,
U,8.wav,0,0,0,37,37,0,,,,,bloc_c.xlsx,None,1,,,,,,,,,,,,1,0,1,0,0,0,0,1,0,37,37,37,518.3936213999987,,,,,,,,,,,,,,,,,,,,,,,,,,,,,,,,,,,,,518.378429799981,518.3936213999987,518.8770085999859,520.3755194999976,None,1,,,,,,,,,,,,,,,,,,,,3,001,2026-04-27_13h22.42.254,untitled,,2025.1.1,60.07849856245955,2026-04-27 13h22.53.195997 +0200,
N,1.wav,0,0,0,38,38,0,,,,,bloc_c.xlsx,None,1,,,,,,,,,,,,1,0,1,0,0,0,0,1,0,38,38,38,520.3919938000035,,,,,,,,,,,,,,,,,,,,,,,,,,,,,,,,,,,,,520.3771845999872,520.3919938000035,520.8749168999784,522.3739722000028,None,1,,,,,,,,,,,,,,,,,,,,3,001,2026-04-27_13h22.42.254,untitled,,2025.1.1,60.07849856245955,2026-04-27 13h22.53.195997 +0200,
K,3.wav,0,0,0,39,39,0,,,,,bloc_c.xlsx,None,1,,,,,,,,,,,,1,0,1,0,0,0,0,1,0,39,39,39,522.3903313000046,,,,,,,,,,,,,,,,,,,,,,,,,,,,,,,,,,,,,522.3756683999964,522.3903313000046,522.8733510999882,524.3889415999874,None,1,,,524.3887849999883,,,,,,,,,,,,,,,,,3,001,2026-04-27_13h22.42.254,untitled,,2025.1.1,60.07849856245955,2026-04-27 13h22.53.195997 +0200,
N,1.wav,1,1,1,40,40,0,,,,,bloc_c.xlsx,None,0,,,,,,,,,,,,1,0,1,0,0,0,0,1,0,40,40,40,524.4052691999823,,,,,,,,,,,,,,,,,,,,,,,,,,,,,,,,,,,,,524.3901750999794,524.4052691999823,524.8884530999931,526.3869850999909,None,0,,,,,,,,,,,,,,,,,,,,3,001,2026-04-27_13h22.42.254,untitled,,2025.1.1,60.07849856245955,2026-04-27 13h22.53.195997 +0200,
P,8.wav,0,0,0,41,41,0,,,,,bloc_c.xlsx,None,1,,,,,,,,,,,,1,0,1,0,0,0,0,1,0,41,41,41,526.403674000001,,,,,,,,,,,,,,,,,,,,,,,,,,,,,,,,,,,,,526.388282800006,526.403674000001,526.8866300999944,528.3857409000047,None,1,,,,,,,,,,,,,,,,,,,,3,001,2026-04-27_13h22.42.254,untitled,,2025.1.1,60.07849856245955,2026-04-27 13h22.53.195997 +0200,
G,2.wav,0,0,0,42,42,0,,,,,bloc_c.xlsx,None,1,,,,,,,,,,,,1,0,1,0,0,0,0,1,0,42,42,42,528.4018344999931,,,,,,,,,,,,,,,,,,,,,,,,,,,,,,,,,,,,,528.387169499998,528.4018344999931,528.8850869000016,530.3843399999896,None,1,,,,,,,,,,,,,,,,,,,,3,001,2026-04-27_13h22.42.254,untitled,,2025.1.1,60.07849856245955,2026-04-27 13h22.53.195997 +0200,
Q,4.wav,0,0,0,43,43,0,,,,,bloc_c.xlsx,None,1,,,,,,,,,,,,1,0,1,0,0,0,0,1,0,43,43,43,530.4002827999939,,,,,,,,,,,,,,,,,,,,,,,,,,,,,,,,,,,,,530.3858555000043,530.4002827999939,530.8832420999825,532.3821523999795,None,1,,,,,,,,,,,,,,,,,,,,3,001,2026-04-27_13h22.42.254,untitled,,2025.1.1,60.07849856245955,2026-04-27 13h22.53.195997 +0200,
B,6.wav,0,0,0,44,44,0,,,,,bloc_c.xlsx,None,1,,,,,,,,,,,,1,0,1,0,0,0,0,1,0,44,44,44,532.3988103999873,,,,,,,,,,,,,,,,,,,,,,,,,,,,,,,,,,,,,532.3838290999993,532.3988103999873,532.8818565999973,534.3805732000037,None,1,,,,,,,,,,,,,,,,,,,,3,001,2026-04-27_13h22.42.254,untitled,,2025.1.1,60.07849856245955,2026-04-27 13h22.53.195997 +0200,
Q,2.wav,1,0,0,45,45,0,,,,,bloc_c.xlsx,space,1,1.3144603999971878,0.16589150001527742,,,,,,,,,,1,0,1,0,0,0,0,1,0,45,45,45,534.3970951999945,,,,,,,,,,,,,,,,,,,,,,,,,,,,,,,,,,,,,534.3820780999959,534.3970951999945,534.8800541999808,536.3790702999977,space,1,1.3144603999971878,0.16589150001527742,,,,,,,,,,,,,,,,,,3,001,2026-04-27_13h22.42.254,untitled,,2025.1.1,60.07849856245955,2026-04-27 13h22.53.195997 +0200,
E,3.wav,0,0,0,46,46,0,,,,,bloc_c.xlsx,None,1,,,,,,,,,,,,1,0,1,0,0,0,0,1,0,46,46,46,536.3954267999798,,,,,,,,,,,,,,,,,,,,,,,,,,,,,,,,,,,,,536.3804538999975,536.3954267999798,536.8785256999836,538.3776026999985,None,1,,,,,,,,,,,,,,,,,,,,3,001,2026-04-27_13h22.42.254,untitled,,2025.1.1,60.07849856245955,2026-04-27 13h22.53.195997 +0200,
U,2.wav,0,1,0,47,47,0,,,,,bloc_c.xlsx,None,1,,,,,,,,,,,,1,0,1,0,0,0,0,1,0,47,47,47,538.3937718999805,,,,,,,,,,,,,,,,,,,,,,,,,,,,,,,,,,,,,538.3791168000025,538.3937718999805,538.8766869999818,540.3756656000041,None,1,,,,,,,,,,,,,,,,,,,,3,001,2026-04-27_13h22.42.254,untitled,,2025.1.1,60.07849856245955,2026-04-27 13h22.53.195997 +0200,
D,4.wav,0,0,0,48,48,0,,,,,bloc_c.xlsx,None,1,,,,,,,,,,,,1,0,1,0,0,0,0,1,0,48,48,48,540.3919908999815,,,,,,,,,,,,,,,,,,,,,,,,,,,,,,,,,,,,,540.376843999984,540.3919908999815,540.8752256000007,542.3742527999857,None,1,,,,,,,,,,,,,,,,,,,,3,001,2026-04-27_13h22.42.254,untitled,,2025.1.1,60.07849856245955,2026-04-27 13h22.53.195997 +0200,
W,6.wav,0,0,0,49,49,0,,,,,bloc_c.xlsx,None,1,,,,,,,,,,,,1,0,1,0,0,0,0,1,0,49,49,49,542.3905245999922,,,,,,,,,,,,,,,,,,,,,,,,,,,,,,,,,,,,,542.3763564999972,542.3905245999922,542.8734086999903,544.3889327999786,None,1,,,544.3887851999898,,,,,,,,,,,,,,,,,3,001,2026-04-27_13h22.42.254,untitled,,2025.1.1,60.07849856245955,2026-04-27 13h22.53.195997 +0200,
,,,,,0,0,0,,,,,bloc_c.xlsx,,,,,,,,,,,,,,1,0,1,0,0,0,0,1,,,,,,,,,,,,,,,,,,,,,,,,,,,,,,,,,,,,,,,,,,,,,,,,,,,,,,,,,,,,,,,,,,,3,001,2026-04-27_13h22.42.254,untitled,,2025.1.1,60.07849856245955,2026-04-27 13h22.53.195997 +0200,
P,3.wav,0,0,0,0,0,0,,,,,bloc_b.xlsx,None,1,,,,,,,,,,,,1,0,1,0,0,1,1,2,0,0,0,0,544.4055647999921,,,,,,,,,,,,,,,,,,,,,,,,,,,,,,,,,,,,,544.4032577000035,544.4055647999921,544.8884488999902,546.3874575999798,None,1,,,,,,,,,,,,,,,,,,,,3,001,2026-04-27_13h22.42.254,untitled,,2025.1.1,60.07849856245955,2026-04-27 13h22.53.195997 +0200,
N,1.wav,0,0,0,1,1,0,,,,,bloc_b.xlsx,None,1,,,,,,,,,,,,1,0,1,0,0,1,1,2,0,1,1,1,546.404002700001,,,,,,,,,,,,,,,,,,,,,,,,,,,,,,,,,,,,,546.3887059999979,546.404002700001,546.8867659999814,548.3858097000048,None,1,,,,,,,,,,,,,,,,,,,,3,001,2026-04-27_13h22.42.254,untitled,,2025.1.1,60.07849856245955,2026-04-27 13h22.53.195997 +0200,
U,2.wav,0,0,0,2,2,0,,,,,bloc_b.xlsx,None,1,,,,,,,,,,,,1,0,1,0,0,1,1,2,0,2,2,2,548.4022703999944,,,,,,,,,,,,,,,,,,,,,,,,,,,,,,,,,,,,,548.3870819000003,548.4022703999944,548.8851991999836,550.3843042999797,None,1,,,,,,,,,,,,,,,,,,,,3,001,2026-04-27_13h22.42.254,untitled,,2025.1.1,60.07849856245955,2026-04-27 13h22.53.195997 +0200,
J,6.wav,0,0,0,3,3,0,,,,,bloc_b.xlsx,None,1,,,,,,,,,,,,1,0,1,0,0,1,1,2,0,3,3,3,550.4006838999921,,,,,,,,,,,,,,,,,,,,,,,,,,,,,,,,,,,,,550.3857971999969,550.4006838999921,550.8835668999818,552.3828096999787,None,1,,,,,,,,,,,,,,,,,,,,3,001,2026-04-27_13h22.42.254,untitled,,2025.1.1,60.07849856245955,2026-04-27 13h22.53.195997 +0200,
U,2.wav,1,1,1,4,4,0,,,,,bloc_b.xlsx,space,1,1.4113225000037346,0.1488365999830421,,,,,,,,,,1,0,1,0,0,1,1,2,0,4,4,4,552.3990180999972,,,,,,,,,,,,,,,,,,,,,,,,,,,,,,,,,,,,,552.3846411999839,552.3990180999972,552.881802399992,554.3806519999926,space,1,1.4113225000037346,0.1488365999830421,,,,,,,,,,,,,,,,,,3,001,2026-04-27_13h22.42.254,untitled,,2025.1.1,60.07849856245955,2026-04-27 13h22.53.195997 +0200,
F,8.wav,0,0,0,5,5,0,,,,,bloc_b.xlsx,None,1,,,,,,,,,,,,1,0,1,0,0,1,1,2,0,5,5,5,554.3973785999988,,,,,,,,,,,,,,,,,,,,,,,,,,,,,,,,,,,,,554.3819571000058,554.3973785999988,554.88017639998,556.3793036999996,None,1,,,,,,,,,,,,,,,,,,,,3,001,2026-04-27_13h22.42.254,untitled,,2025.1.1,60.07849856245955,2026-04-27 13h22.53.195997 +0200,
V,5.wav,0,0,0,6,6,0,,,,,bloc_b.xlsx,None,1,,,,,,,,,,,,1,0,1,0,0,1,1,2,0,6,6,6,556.3956968999992,,,,,,,,,,,,,,,,,,,,,,,,,,,,,,,,,,,,,556.380614499998,556.3956968999992,556.878633299988,558.3776209999924,None,1,,,,,,,,,,,,,,,,,,,,3,001,2026-04-27_13h22.42.254,untitled,,2025.1.1,60.07849856245955,2026-04-27 13h22.53.195997 +0200,
F,7.wav,1,0,0,7,7,0,,,,,bloc_b.xlsx,None,0,,,,,,,,,,,,1,0,1,0,0,1,1,2,0,7,7,7,558.3940973999852,,,,,,,,,,,,,,,,,,,,,,,,,,,,,,,,,,,,,558.3789879999822,558.3940973999852,558.8769050999836,560.3758725999796,None,0,,,,,,,,,,,,,,,,,,,,3,001,2026-04-27_13h22.42.254,untitled,,2025.1.1,60.07849856245955,2026-04-27 13h22.53.195997 +0200,
P,2.wav,0,0,0,8,8,0,,,,,bloc_b.xlsx,None,1,,,,,,,,,,,,1,0,1,0,0,1,1,2,0,8,8,8,560.3925256999792,,,,,,,,,,,,,,,,,,,,,,,,,,,,,,,,,,,,,560.377584300004,560.3925256999792,560.8754584999988,562.3742182999849,None,1,,,,,,,,,,,,,,,,,,,,3,001,2026-04-27_13h22.42.254,untitled,,2025.1.1,60.07849856245955,2026-04-27 13h22.53.195997 +0200,
N,7.wav,0,1,0,9,9,0,,,,,bloc_b.xlsx,None,1,,,,,,,,,,,,1,0,1,0,0,1,1,2,0,9,9,9,562.390882799984,,,,,,,,,,,,,,,,,,,,,,,,,,,,,,,,,,,,,562.3756098999875,562.390882799984,562.8738164999813,564.3892215999949,None,1,,,564.3890490999911,,,,,,,,,,,,,,,,,3,001,2026-04-27_13h22.42.254,untitled,,2025.1.1,60.07849856245955,2026-04-27 13h22.53.195997 +0200,
C,5.wav,0,0,0,10,10,0,,,,,bloc_b.xlsx,None,1,,,,,,,,,,,,1,0,1,0,0,1,1,2,0,10,10,10,564.4058111000049,,,,,,,,,,,,,,,,,,,,,,,,,,,,,,,,,,,,,564.3904995000048,564.4058111000049,564.888894499978,566.3878237000026,None,1,,,,,,,,,,,,,,,,,,,,3,001,2026-04-27_13h22.42.254,untitled,,2025.1.1,60.07849856245955,2026-04-27 13h22.53.195997 +0200,
L,6.wav,0,0,0,11,11,0,,,,,bloc_b.xlsx,None,1,,,,,,,,,,,,1,0,1,0,0,1,1,2,0,11,11,11,566.4042439000041,,,,,,,,,,,,,,,,,,,,,,,,,,,,,,,,,,,,,566.3890789999859,566.4042439000041,566.8871282000036,568.3859736000013,None,1,,,,,,,,,,,,,,,,,,,,3,001,2026-04-27_13h22.42.254,untitled,,2025.1.1,60.07849856245955,2026-04-27 13h22.53.195997 +0200,
E,1.wav,0,0,0,12,12,0,,,,,bloc_b.xlsx,None,1,,,,,,,,,,,,1,0,1,0,0,1,1,2,0,12,12,12,568.4026150999998,,,,,,,,,,,,,,,,,,,,,,,,,,,,,,,,,,,,,568.3873169999861,568.4026150999998,568.8854678999924,570.3845115999866,None,1,,,,,,,,,,,,,,,,,,,,3,001,2026-04-27_13h22.42.254,untitled,,2025.1.1,60.07849856245955,2026-04-27 13h22.53.195997 +0200,
K,5.wav,0,0,0,13,13,0,,,,,bloc_b.xlsx,None,1,,,,,,,,,,,,1,0,1,0,0,1,1,2,0,13,13,13,570.4009049999877,,,,,,,,,,,,,,,,,,,,,,,,,,,,,,,,,,,,,570.3863051999942,570.4009049999877,570.8837529000011,572.3828154999937,None,1,,,,,,,,,,,,,,,,,,,,3,001,2026-04-27_13h22.42.254,untitled,,2025.1.1,60.07849856245955,2026-04-27 13h22.53.195997 +0200,
E,1.wav,1,1,1,14,14,0,,,,,bloc_b.xlsx,space,1,1.6939583999919705,0.1741535000037402,,,,,,,,,,1,0,1,0,0,1,1,2,0,14,14,14,572.3993070999859,,,,,,,,,,,,,,,,,,,,,,,,,,,,,,,,,,,,,572.3841212999832,572.3993070999859,572.8821258999815,574.3809735999967,space,1,1.6939583999919705,0.1741535000037402,,,,,,,,,,,,,,,,,,3,001,2026-04-27_13h22.42.254,untitled,,2025.1.1,60.07849856245955,2026-04-27 13h22.53.195997 +0200,
U,7.wav,0,0,0,15,15,0,,,,,bloc_b.xlsx,None,1,,,,,,,,,,,,1,0,1,0,0,1,1,2,0,15,15,15,574.3976837999944,,,,,,,,,,,,,,,,,,,,,,,,,,,,,,,,,,,,,574.3821988999844,574.3976837999944,574.8804983999871,576.3793531999981,None,1,,,,,,,,,,,,,,,,,,,,3,001,2026-04-27_13h22.42.254,untitled,,2025.1.1,60.07849856245955,2026-04-27 13h22.53.195997 +0200,
X,3.wav,0,0,0,16,16,0,,,,,bloc_b.xlsx,None,1,,,,,,,,,,,,1,0,1,0,0,1,1,2,0,16,16,16,576.3957787999825,,,,,,,,,,,,,,,,,,,,,,,,,,,,,,,,,,,,,576.3806018999894,576.3957787999825,576.8789494999801,578.3777493999805,None,1,,,,,,,,,,,,,,,,,,,,3,001,2026-04-27_13h22.42.254,untitled,,2025.1.1,60.07849856245955,2026-04-27 13h22.53.195997 +0200,
L,4.wav,0,0,0,17,17,0,,,,,bloc_b.xlsx,None,1,,,,,,,,,,,,1,0,1,0,0,1,1,2,0,17,17,17,578.3943591999996,,,,,,,,,,,,,,,,,,,,,,,,,,,,,,,,,,,,,578.379420399986,578.3943591999996,578.8772748000047,580.3762607999961,None,1,,,,,,,,,,,,,,,,,,,,3,001,2026-04-27_13h22.42.254,untitled,,2025.1.1,60.07849856245955,2026-04-27 13h22.53.195997 +0200,
B,3.wav,0,1,0,18,18,0,,,,,bloc_b.xlsx,None,1,,,,,,,,,,,,1,0,1,0,0,1,1,2,0,18,18,18,580.3925193999894,,,,,,,,,,,,,,,,,,,,,,,,,,,,,,,,,,,,,580.3780165999779,580.3925193999894,580.8755889000022,582.3748644999869,None,1,,,,,,,,,,,,,,,,,,,,3,001,2026-04-27_13h22.42.254,untitled,,2025.1.1,60.07849856245955,2026-04-27 13h22.53.195997 +0200,
L,5.wav,1,0,0,19,19,0,,,,,bloc_b.xlsx,space,1,1.8031596000073478,0.13935899999341927,,,,,,,,,,1,0,1,0,0,1,1,2,0,19,19,19,582.3910570000007,,,,,,,,,,,,,,,,,,,,,,,,,,,,,,,,,,,,,582.3761244000052,582.3910570000007,582.8740332000016,584.3894551999983,space,1,1.8031596000073478,0.13935899999341927,584.3893697999883,,,,,,,,,,,,,,,,,3,001,2026-04-27_13h22.42.254,untitled,,2025.1.1,60.07849856245955,2026-04-27 13h22.53.195997 +0200,
Q,2.wav,0,0,0,20,20,0,,,,,bloc_b.xlsx,None,1,,,,,,,,,,,,1,0,1,0,0,1,1,2,0,20,20,20,584.4059209999978,,,,,,,,,,,,,,,,,,,,,,,,,,,,,,,,,,,,,584.3909019999846,584.4059209999978,584.888844000001,586.38795449998,None,1,,,,,,,,,,,,,,,,,,,,3,001,2026-04-27_13h22.42.254,untitled,,2025.1.1,60.07849856245955,2026-04-27 13h22.53.195997 +0200,
B,7.wav,0,0,0,21,21,0,,,,,bloc_b.xlsx,None,1,,,,,,,,,,,,1,0,1,0,0,1,1,2,0,21,21,21,586.404381100001,,,,,,,,,,,,,,,,,,,,,,,,,,,,,,,,,,,,,586.3891874999972,586.404381100001,586.8873296999955,588.3863755000057,None,1,,,,,,,,,,,,,,,,,,,,3,001,2026-04-27_13h22.42.254,untitled,,2025.1.1,60.07849856245955,2026-04-27 13h22.53.195997 +0200,
W,1.wav,0,0,0,22,22,0,,,,,bloc_b.xlsx,None,1,,,,,,,,,,,,1,0,1,0,0,1,1,2,0,22,22,22,588.4026306000014,,,,,,,,,,,,,,,,,,,,,,,,,,,,,,,,,,,,,588.3875737999915,588.4026306000014,588.8856467999867,590.3844043999852,None,1,,,,,,,,,,,,,,,,,,,,3,001,2026-04-27_13h22.42.254,untitled,,2025.1.1,60.07849856245955,2026-04-27 13h22.53.195997 +0200,
B,5.wav,1,0,0,23,23,0,,,,,bloc_b.xlsx,None,0,,,,,,,,,,,,1,0,1,0,0,1,1,2,0,23,23,23,590.4010449000052,,,,,,,,,,,,,,,,,,,,,,,,,,,,,,,,,,,,,590.3856273999845,590.4010449000052,590.8839990999841,592.3831293999974,None,0,,,,,,,,,,,,,,,,,,,,3,001,2026-04-27_13h22.42.254,untitled,,2025.1.1,60.07849856245955,2026-04-27 13h22.53.195997 +0200,
P,1.wav,0,1,0,24,24,0,,,,,bloc_b.xlsx,None,1,,,,,,,,,,,,1,0,1,0,0,1,1,2,0,24,24,24,592.3993295999826,,,,,,,,,,,,,,,,,,,,,,,,,,,,,,,,,,,,,592.3844490000047,592.3993295999826,592.8824153000023,594.3814530999807,None,1,,,,,,,,,,,,,,,,,,,,3,001,2026-04-27_13h22.42.254,untitled,,2025.1.1,60.07849856245955,2026-04-27 13h22.53.195997 +0200,
L,7.wav,0,0,0,25,25,0,,,,,bloc_b.xlsx,None,1,,,,,,,,,,,,1,0,1,0,0,1,1,2,0,25,25,25,594.3977700999822,,,,,,,,,,,,,,,,,,,,,,,,,,,,,,,,,,,,,594.383224899997,594.3977700999822,594.8807855999912,596.3795223000052,None,1,,,,,,,,,,,,,,,,,,,,3,001,2026-04-27_13h22.42.254,untitled,,2025.1.1,60.07849856245955,2026-04-27 13h22.53.195997 +0200,
D,6.wav,0,0,0,26,26,0,,,,,bloc_b.xlsx,None,1,,,,,,,,,,,,1,0,1,0,0,1,1,2,0,26,26,26,596.3960757000023,,,,,,,,,,,,,,,,,,,,,,,,,,,,,,,,,,,,,596.3814731999882,596.3960757000023,596.8790353999939,598.3781300999981,None,1,,,,,,,,,,,,,,,,,,,,3,001,2026-04-27_13h22.42.254,untitled,,2025.1.1,60.07849856245955,2026-04-27 13h22.53.195997 +0200,
S,3.wav,0,0,0,27,27,0,,,,,bloc_b.xlsx,None,1,,,,,,,,,,,,1,0,1,0,0,1,1,2,0,27,27,27,598.3943883999891,,,,,,,,,,,,,,,,,,,,,,,,,,,,,,,,,,,,,598.379469699983,598.3943883999891,598.877464499994,600.3764148000046,None,1,,,,,,,,,,,,,,,,,,,,3,001,2026-04-27_13h22.42.254,untitled,,2025.1.1,60.07849856245955,2026-04-27 13h22.53.195997 +0200,
W,8.wav,0,0,0,28,28,0,,,,,bloc_b.xlsx,None,1,,,,,,,,,,,,1,0,1,0,0,1,1,2,0,28,28,28,600.3926842999936,,,,,,,,,,,,,,,,,,,,,,,,,,,,,,,,,,,,,600.3775955000019,600.3926842999936,600.8759060000011,602.3746238999884,None,1,,,,,,,,,,,,,,,,,,,,3,001,2026-04-27_13h22.42.254,untitled,,2025.1.1,60.07849856245955,2026-04-27 13h22.53.195997 +0200,
L,3.wav,0,1,0,29,29,0,,,,,bloc_b.xlsx,None,1,,,,,,,,,,,,1,0,1,0,0,1,1,2,0,29,29,29,602.3912211999996,,,,,,,,,,,,,,,,,,,,,,,,,,,,,,,,,,,,,602.3758082999848,602.3912211999996,602.8741037999862,604.3897163999791,None,1,,,604.3895865999802,,,,,,,,,,,,,,,,,3,001,2026-04-27_13h22.42.254,untitled,,2025.1.1,60.07849856245955,2026-04-27 13h22.53.195997 +0200,
W,6.wav,1,0,0,30,30,0,,,,,bloc_b.xlsx,None,0,,,,,,,,,,,,1,0,1,0,0,1,1,2,0,30,30,30,604.4062211999844,,,,,,,,,,,,,,,,,,,,,,,,,,,,,,,,,,,,,604.3910205999855,604.4062211999844,604.888981600001,606.3881758999778,None,0,,,,,,,,,,,,,,,,,,,,3,001,2026-04-27_13h22.42.254,untitled,,2025.1.1,60.07849856245955,2026-04-27 13h22.53.195997 +0200,
H,1.wav,0,0,0,31,31,0,,,,,bloc_b.xlsx,None,1,,,,,,,,,,,,1,0,1,0,0,1,1,2,0,31,31,31,606.4045227000024,,,,,,,,,,,,,,,,,,,,,,,,,,,,,,,,,,,,,606.3894608999835,606.4045227000024,606.8873590999865,608.3865097999806,None,1,,,608.3861203999841,,,,,,,,,,,,,,,,,3,001,2026-04-27_13h22.42.254,untitled,,2025.1.1,60.07849856245955,2026-04-27 13h22.53.195997 +0200,
Y,4.wav,0,0,0,32,32,0,,,,,bloc_b.xlsx,None,1,,,,,,,,,,,,1,0,1,0,0,1,1,2,0,32,32,32,608.4030453999876,,,,,,,,,,,,,,,,,,,,,,,,,,,,,,,,,,,,,608.388089199987,608.4030453999876,608.8859026999853,610.3847222999902,None,1,,,,,,,,,,,,,,,,,,,,3,001,2026-04-27_13h22.42.254,untitled,,2025.1.1,60.07849856245955,2026-04-27 13h22.53.195997 +0200,
R,1.wav,0,1,0,33,33,0,,,,,bloc_b.xlsx,None,1,,,,,,,,,,,,1,0,1,0,0,1,1,2,0,33,33,33,610.4013949999935,,,,,,,,,,,,,,,,,,,,,,,,,,,,,,,,,,,,,610.3860685999971,610.4013949999935,610.8841635999852,612.3833528999821,None,1,,,,,,,,,,,,,,,,,,,,3,001,2026-04-27_13h22.42.254,untitled,,2025.1.1,60.07849856245955,2026-04-27 13h22.53.195997 +0200,
J,8.wav,0,0,0,34,34,0,,,,,bloc_b.xlsx,None,1,,,,,,,,,,,,1,0,1,0,0,1,1,2,0,34,34,34,612.399745200004,,,,,,,,,,,,,,,,,,,,,,,,,,,,,,,,,,,,,612.3847149999929,612.399745200004,612.8825048999861,614.3815601999813,None,1,,,,,,,,,,,,,,,,,,,,3,001,2026-04-27_13h22.42.254,untitled,,2025.1.1,60.07849856245955,2026-04-27 13h22.53.195997 +0200,
R,5.wav,1,0,0,35,35,0,,,,,bloc_b.xlsx,space,1,1.1448243999911938,0.19829810000373982,,,,,,,,,,1,0,1,0,0,1,1,2,0,35,35,35,614.39800809999,,,,,,,,,,,,,,,,,,,,,,,,,,,,,,,,,,,,,614.3834479999787,614.39800809999,614.8808010999928,616.3797451999853,space,1,1.1448243999911938,0.19829810000373982,,,,,,,,,,,,,,,,,,3,001,2026-04-27_13h22.42.254,untitled,,2025.1.1,60.07849856245955,2026-04-27 13h22.53.195997 +0200,
S,2.wav,0,0,0,36,36,0,,,,,bloc_b.xlsx,None,1,,,,,,,,,,,,1,0,1,0,0,1,1,2,0,36,36,36,616.3964747999853,,,,,,,,,,,,,,,,,,,,,,,,,,,,,,,,,,,,,616.3810090000043,616.3964747999853,616.879389299982,618.3782389999833,None,1,,,,,,,,,,,,,,,,,,,,3,001,2026-04-27_13h22.42.254,untitled,,2025.1.1,60.07849856245955,2026-04-27 13h22.53.195997 +0200,
W,5.wav,0,1,0,37,37,0,,,,,bloc_b.xlsx,None,1,,,,,,,,,,,,1,0,1,0,0,1,1,2,0,37,37,37,618.3948272999842,,,,,,,,,,,,,,,,,,,,,,,,,,,,,,,,,,,,,618.3799665999832,618.3948272999842,618.8775339999993,620.3763641999976,None,1,,,,,,,,,,,,,,,,,,,,3,001,2026-04-27_13h22.42.254,untitled,,2025.1.1,60.07849856245955,2026-04-27 13h22.53.195997 +0200,
S,8.wav,1,0,0,38,38,0,,,,,bloc_b.xlsx,space,1,1.326232399995206,0.15686190000269562,,,,,,,,,,1,0,1,0,0,1,1,2,0,38,38,38,620.3931052999978,,,,,,,,,,,,,,,,,,,,,,,,,,,,,,,,,,,,,620.3778043999919,620.3931052999978,620.8759933999972,622.3749547000043,space,1,1.326232399995206,0.15686190000269562,,,,,,,,,,,,,,,,,,3,001,2026-04-27_13h22.42.254,untitled,,2025.1.1,60.07849856245955,2026-04-27 13h22.53.195997 +0200,
V,1.wav,0,0,0,39,39,0,,,,,bloc_b.xlsx,None,1,,,,,,,,,,,,1,0,1,0,0,1,1,2,0,39,39,39,622.3914422999951,,,,,,,,,,,,,,,,,,,,,,,,,,,,,,,,,,,,,622.3761883999978,622.3914422999951,622.8743405999849,624.3904170999886,None,1,,,624.3898699999845,,,,,,,,,,,,,,,,,3,001,2026-04-27_13h22.42.254,untitled,,2025.1.1,60.07849856245955,2026-04-27 13h22.53.195997 +0200,
M,4.wav,0,0,0,40,40,0,,,,,bloc_b.xlsx,None,1,,,,,,,,,,,,1,0,1,0,0,1,1,2,0,40,40,40,624.4064241999877,,,,,,,,,,,,,,,,,,,,,,,,,,,,,,,,,,,,,624.3920799999905,624.4064241999877,624.8727333999996,626.388321699982,None,1,,,626.3881032000063,,,,,,,,,,,,,,,,,3,001,2026-04-27_13h22.42.254,untitled,,2025.1.1,60.07849856245955,2026-04-27 13h22.53.195997 +0200,
H,5.wav,0,0,0,41,41,0,,,,,bloc_b.xlsx,None,1,,,,,,,,,,,,1,0,1,0,0,1,1,2,0,41,41,41,626.4047984999779,,,,,,,,,,,,,,,,,,,,,,,,,,,,,,,,,,,,,626.3897641999938,626.4047984999779,626.8878054999805,628.3866347000003,None,1,,,,,,,,,,,,,,,,,,,,3,001,2026-04-27_13h22.42.254,untitled,,2025.1.1,60.07849856245955,2026-04-27 13h22.53.195997 +0200,
S,2.wav,0,0,0,42,42,0,,,,,bloc_b.xlsx,None,1,,,,,,,,,,,,1,0,1,0,0,1,1,2,0,42,42,42,628.4032880000013,,,,,,,,,,,,,,,,,,,,,,,,,,,,,,,,,,,,,628.3879525999946,628.4032880000013,628.8861907999963,630.3848473999824,None,1,,,,,,,,,,,,,,,,,,,,3,001,2026-04-27_13h22.42.254,untitled,,2025.1.1,60.07849856245955,2026-04-27 13h22.53.195997 +0200,
H,5.wav,1,1,1,43,43,0,,,,,bloc_b.xlsx,None,0,,,,,,,,,,,,1,0,1,0,0,1,1,2,0,43,43,43,630.4014527999971,,,,,,,,,,,,,,,,,,,,,,,,,,,,,,,,,,,,,630.3861036000017,630.4014527999971,630.8843293999962,632.3833185999829,None,0,,,632.3830976999889,,,,,,,,,,,,,,,,,3,001,2026-04-27_13h22.42.254,untitled,,2025.1.1,60.07849856245955,2026-04-27 13h22.53.195997 +0200,
U,6.wav,0,0,0,44,44,0,,,,,bloc_b.xlsx,None,1,,,,,,,,,,,,1,0,1,0,0,1,1,2,0,44,44,44,632.3998207999975,,,,,,,,,,,,,,,,,,,,,,,,,,,,,,,,,,,,,632.3848252999887,632.3998207999975,632.8827185999835,634.3818988999992,None,1,,,,,,,,,,,,,,,,,,,,3,001,2026-04-27_13h22.42.254,untitled,,2025.1.1,60.07849856245955,2026-04-27 13h22.53.195997 +0200,
W,3.wav,0,0,0,45,45,0,,,,,bloc_b.xlsx,None,1,,,,,,,,,,,,1,0,1,0,0,1,1,2,0,45,45,45,634.3981415999879,,,,,,,,,,,,,,,,,,,,,,,,,,,,,,,,,,,,,634.3839304999856,634.3981415999879,634.8811368999886,636.3801218000008,None,1,,,,,,,,,,,,,,,,,,,,3,001,2026-04-27_13h22.42.254,untitled,,2025.1.1,60.07849856245955,2026-04-27 13h22.53.195997 +0200,
J,6.wav,0,1,0,46,46,0,,,,,bloc_b.xlsx,None,1,,,,,,,,,,,,1,0,1,0,0,1,1,2,0,46,46,46,636.3963675999839,,,,,,,,,,,,,,,,,,,,,,,,,,,,,,,,,,,,,636.3813963999855,636.3963675999839,636.8794264000026,638.3785875999893,None,1,,,,,,,,,,,,,,,,,,,,3,001,2026-04-27_13h22.42.254,untitled,,2025.1.1,60.07849856245955,2026-04-27 13h22.53.195997 +0200,
