stimulus,sound_file,letter_isTarget,sound_isTarget,dual_target,thisN,thisTrialN,thisRepN,key_resp_2.keys,key_resp_2.corr,key_resp_2.rt,key_resp_2.duration,cond_file,key_resp.keys,key_resp.corr,key_resp.rt,key_resp.duration,RSME_ticks.response,RSME_ticks.rt,button_next_11.numClicks,button_next_11.timesOn,button_next_11.timesOff,practice_trials.thisRepN,practice_trials.thisTrialN,practice_trials.thisN,practice_trials.thisIndex,blocs_loops.thisRepN,blocs_loops.thisTrialN,blocs_loops.thisN,blocs_loops.thisIndex,sequence_of_trials_X3.thisRepN,sequence_of_trials_X3.thisTrialN,sequence_of_trials_X3.thisN,sequence_of_trials_X3.thisIndex,trials_X50.thisRepN,trials_X50.thisTrialN,trials_X50.thisN,trials_X50.thisIndex,thisRow.t,notes,INIT_LSL.started,text_init.started,text_init.stopped,INIT_LSL.stopped,init.started,text_6.started,key_resp_5.started,init.stopped,key_resp_5.keys,key_resp_5.rt,key_resp_5.duration,instructions.started,text_5.started,key_resp_3.started,instructions.stopped,key_resp_3.keys,key_resp_3.rt,key_resp_3.duration,practice_trial.started,key_resp_2.started,feedback_text.started,text_2.started,text_2.stopped,practice_trial.stopped,practice_trials.key_resp_2.keys,practice_trials.key_resp_2.corr,practice_trials.key_resp_2.rt,practice_trials.key_resp_2.duration,instructions_finale.started,text_4.started,key_resp_4.started,instructions_finale.stopped,key_resp_4.keys,key_resp_4.rt,key_resp_4.duration,trial.started,key_resp.started,text.started,trial.stopped,trials_X50.key_resp.keys,trials_X50.key_resp.corr,trials_X50.key_resp.rt,trials_X50.key_resp.duration,text.stopped,KSS_POST_BLOCK.started,RSME_labels.started,RSME_ticks.started,RSME_text.started,answer1_text.started,button_next_11.started,KSS_POST_BLOCK.stopped,blocs_loops.RSME_ticks.response,blocs_loops.RSME_ticks.rt,blocs_loops.button_next_11.numClicks,blocs_loops.button_next_11.timesOn,blocs_loops.button_next_11.timesOff,merci.started,text_7.started,text_7.stopped,merci.stopped,participant,session,date,expName,expVersion,psychopyVersion,frameRate,expStart,
,,,,,,,,,,,,,,,,,,,,,,,,,,,,,,,,,,,,,,,,0.0014109000039752573,0.0032451000006403774,1.005502499989234,0.989041199994972,,,,,,,,,,,,,,,,,,,,,,,,,,,,,,,,,,,,,,,,,,,,,,,,,,,,,,,,,4,001,2026-04-28_09h17.26.978,untitled,,2025.1.1,60.03546895955558,2026-04-28 09h17.34.134060 +0200,
,,,,,,,,,,,,,,,,,,,,,,,,,,,,,,,,,,,,,,,,,,,,0.9890742000134196,1.005502499989234,1.005502499989234,16.563591500016628,space,15.53640089998953,None,,,,,,,,,,,,,,,,,,,,,,,,,,,,,,,,,,,,,,,,,,,,,,,,,,4,001,2026-04-28_09h17.26.978,untitled,,2025.1.1,60.03546895955558,2026-04-28 09h17.34.134060 +0200,
,,,,,,,,,,,,,,,,,,,,,,,,,,,,,,,,,,,,,,,,,,,,,,,,,,,16.563624000002164,16.576045499998145,16.576045499998145,20.539571100001922,space,3.9493076000071596,None,,,,,,,,,,,,,,,,,,,,,,,,,,,,,,,,,,,,,,,,,,,4,001,2026-04-28_09h17.26.978,untitled,,2025.1.1,60.03546895955558,2026-04-28 09h17.34.134060 +0200,
L,1.wav,0,0,0,0,0,0,None,1,,,,,,,,,,,,,0,0,0,0,,,,,,,,,,,,,20.556189099996118,,,,,,,,,,,,,,,,,,,,20.55375650001224,20.556189099996118,20.556189099996118,21.038950299989665,22.55420770001365,22.554446299996926,None,1,,,,,,,,,,,,,,,,,,,,,,,,,,,,,,,,,,,4,001,2026-04-28_09h17.26.978,untitled,,2025.1.1,60.03546895955558,2026-04-28 09h17.34.134060 +0200,
M,2.wav,0,0,0,1,1,0,None,1,,,,,,,,,,,,,0,1,1,1,,,,,,,,,,,,,22.570948200009298,,,,,,,,,,,,,,,,,,,,22.558134399994742,22.570948200009298,22.570948200009298,23.05387350000092,,24.5528345000057,None,1,,,,,,,,,,,,,,,,,,,,,,,,,,,,,,,,,,,4,001,2026-04-28_09h17.26.978,untitled,,2025.1.1,60.03546895955558,2026-04-28 09h17.34.134060 +0200,
L,1.wav,1,1,1,2,2,0,None,0,,,,,,,,,,,,,0,2,2,2,,,,,,,,,,,,,24.56924350000918,,,,,,,,,,,,,,,,,,,,24.554728899995098,24.56924350000918,24.56924350000918,25.05224730001646,,26.55116880001151,None,0,,,,,,,,,,,,,,,,,,,,,,,,,,,,,,,,,,,4,001,2026-04-28_09h17.26.978,untitled,,2025.1.1,60.03546895955558,2026-04-28 09h17.34.134060 +0200,
B,8.wav,0,0,0,3,3,0,None,1,,,,,,,,,,,,,0,3,3,3,,,,,,,,,,,,,26.56775740001467,,,,,,,,,,,,,,,,,,,,26.555104600003688,26.56775740001467,26.56775740001467,27.050642999995034,,28.549531900003785,None,1,,,,,,,,,,,,,,,,,,,,,,,,,,,,,,,,,,,4,001,2026-04-28_09h17.26.978,untitled,,2025.1.1,60.03546895955558,2026-04-28 09h17.34.134060 +0200,
G,3.wav,0,0,0,4,4,0,None,1,,,,,,,,,,,,,0,4,4,4,,,,,,,,,,,,,28.56599350000033,,,,,,,,,,,,,,,,,,,,28.554096800013212,28.56599350000033,28.56599350000033,29.048912900005234,,30.54792919999454,None,1,,,,,,,,,,,,,,,,,,,,,,,,,,,,,,,,,,,4,001,2026-04-28_09h17.26.978,untitled,,2025.1.1,60.03546895955558,2026-04-28 09h17.34.134060 +0200,
B,2.wav,1,0,0,5,5,0,None,0,,,,,,,,,,,,,0,5,5,5,,,,,,,,,,,,,30.564374200010207,,,,,,,,,,,,,,,,,,,,30.54945280001266,30.564374200010207,30.564374200010207,31.04725140001392,,32.546323000016855,None,0,,,,,,,,,,,,,,,,,,,,,,,,,,,,,,,,,,,4,001,2026-04-28_09h17.26.978,untitled,,2025.1.1,60.03546895955558,2026-04-28 09h17.34.134060 +0200,
F,1.wav,0,0,0,6,6,0,None,1,,,,,,,,,,,,,0,6,6,6,,,,,,,,,,,,,32.56274250001297,,,,,,,,,,,,,,,,,,,,32.55101329999161,32.56274250001297,32.56274250001297,33.04574090000824,,34.54446959999041,None,1,,,,,,,,,,,,,,,,,,,,,,,,,,,,,,,,,,,4,001,2026-04-28_09h17.26.978,untitled,,2025.1.1,60.03546895955558,2026-04-28 09h17.34.134060 +0200,
N,5.wav,0,0,0,7,7,0,None,1,,,,,,,,,,,,,0,7,7,7,,,,,,,,,,,,,34.56105550000211,,,,,,,,,,,,,,,,,,,,34.548274700006004,34.56105550000211,34.56105550000211,35.04404700000305,,36.542976500000805,None,1,,,,,,,,,,,,,,,,,,,,,,,,,,,,,,,,,,,4,001,2026-04-28_09h17.26.978,untitled,,2025.1.1,60.03546895955558,2026-04-28 09h17.34.134060 +0200,
V,1.wav,0,1,0,8,8,0,None,1,,,,,,,,,,,,,0,8,8,8,,,,,,,,,,,,,36.55943550000666,,,,,,,,,,,,,,,,,,,,36.546730000001844,36.55943550000666,36.55943550000666,37.04235050000716,,38.54122360001202,None,1,,,,,,,,,,,,,,,,,,,,,,,,,,,,,,,,,,,4,001,2026-04-28_09h17.26.978,untitled,,2025.1.1,60.03546895955558,2026-04-28 09h17.34.134060 +0200,
L,6.wav,0,0,0,9,9,0,space,0,1.6273323000059463,0.10559190000640228,,,,,,,,,,,0,9,9,9,,,,,,,,,,,,,38.557783299998846,,,,,,,,,,,,,,,,,,,,38.542714700015495,38.557783299998846,38.557783299998846,39.04060279999976,,40.53972229998908,space,0,1.6273323000059463,0.10559190000640228,,,,,,,,,,,,,,,,,,,,,,,,,,,,,,,,,4,001,2026-04-28_09h17.26.978,untitled,,2025.1.1,60.03546895955558,2026-04-28 09h17.34.134060 +0200,
H,7.wav,0,0,0,10,10,0,None,1,,,,,,,,,,,,,0,10,10,10,,,,,,,,,,,,,40.556225100008305,,,,,,,,,,,,,,,,,,,,40.54459100001259,40.556225100008305,40.556225100008305,41.03920329999528,42.55462460001581,42.55480800001533,None,1,,,,,,,,,,,,,,,,,,,,,,,,,,,,,,,,,,,4,001,2026-04-28_09h17.26.978,untitled,,2025.1.1,60.03546895955558,2026-04-28 09h17.34.134060 +0200,
L,4.wav,1,0,0,11,11,0,space,1,1.9269090999732725,None,,,,,,,,,,,0,11,11,11,,,,,,,,,,,,,42.57118269999046,,,,,,,,,,,,,,,,,,,,42.55627739999909,42.57118269999046,42.57118269999046,43.05418470001314,,44.55311989999609,space,1,1.9269090999732725,None,,,,,,,,,,,,,,,,,,,,,,,,,,,,,,,,,4,001,2026-04-28_09h17.26.978,untitled,,2025.1.1,60.03546895955558,2026-04-28 09h17.34.134060 +0200,
F,3.wav,0,0,0,12,12,0,None,1,,,,,,,,,,,,,0,12,12,12,,,,,,,,,,,,,44.56952109999838,,,,,,,,,,,,,,,,,,,,44.55459569999948,44.56952109999838,44.56952109999838,45.052605000004405,,46.55146560000139,None,1,,,,,,,,,,,,,,,,,,,,,,,,,,,,,,,,,,,4,001,2026-04-28_09h17.26.978,untitled,,2025.1.1,60.03546895955558,2026-04-28 09h17.34.134060 +0200,
A,6.wav,0,0,0,13,13,0,None,1,,,,,,,,,,,,,0,13,13,13,,,,,,,,,,,,,46.56790680001723,,,,,,,,,,,,,,,,,,,,46.555449000006774,46.56790680001723,46.56790680001723,47.050890500016976,,48.54986920001102,None,1,,,,,,,,,,,,,,,,,,,,,,,,,,,,,,,,,,,4,001,2026-04-28_09h17.26.978,untitled,,2025.1.1,60.03546895955558,2026-04-28 09h17.34.134060 +0200,
R,1.wav,0,0,0,14,14,0,None,1,,,,,,,,,,,,,0,14,14,14,,,,,,,,,,,,,48.56619340000907,,,,,,,,,,,,,,,,,,,,48.55137980001746,48.56619340000907,48.56619340000907,49.04926279999199,,50.548485300008906,None,1,,,,,,,,,,,,,,,,,,,,,,,,,,,,,,,,,,,4,001,2026-04-28_09h17.26.978,untitled,,2025.1.1,60.03546895955558,2026-04-28 09h17.34.134060 +0200,
D,6.wav,0,1,0,15,15,0,None,1,,,,,,,,,,,,,0,15,15,15,,,,,,,,,,,,,50.56465049998951,,,,,,,,,,,,,,,,,,,,50.55253700001049,50.56465049998951,50.56465049998951,51.04758220000076,,52.54648300001281,None,1,,,,,,,,,,,,,,,,,,,,,,,,,,,,,,,,,,,4,001,2026-04-28_09h17.26.978,untitled,,2025.1.1,60.03546895955558,2026-04-28 09h17.34.134060 +0200,
R,4.wav,1,0,0,16,16,0,space,1,1.3825879999785684,0.09799420001218095,,,,,,,,,,,0,16,16,16,,,,,,,,,,,,,52.5629952000163,,,,,,,,,,,,,,,,,,,,52.54813770001056,52.5629952000163,52.5629952000163,53.04589870001655,,54.54478279998875,space,1,1.3825879999785684,0.09799420001218095,,,,,,,,,,,,,,,,,,,,,,,,,,,,,,,,,4,001,2026-04-28_09h17.26.978,untitled,,2025.1.1,60.03546895955558,2026-04-28 09h17.34.134060 +0200,
X,3.wav,0,0,0,17,17,0,None,1,,,,,,,,,,,,,0,17,17,17,,,,,,,,,,,,,54.56135930001619,,,,,,,,,,,,,,,,,,,,54.549277799989795,54.56135930001619,54.56135930001619,55.04437200000393,,56.543278299999656,None,1,,,,,,,,,,,,,,,,,,,,,,,,,,,,,,,,,,,4,001,2026-04-28_09h17.26.978,untitled,,2025.1.1,60.03546895955558,2026-04-28 09h17.34.134060 +0200,
N,7.wav,0,0,0,18,18,0,None,1,,,,,,,,,,,,,0,18,18,18,,,,,,,,,,,,,56.559670499991626,,,,,,,,,,,,,,,,,,,,56.544978599995375,56.559670499991626,56.559670499991626,57.04271070001414,,58.54170940001495,None,1,,,,,,,,,,,,,,,,,,,,,,,,,,,,,,,,,,,4,001,2026-04-28_09h17.26.978,untitled,,2025.1.1,60.03546895955558,2026-04-28 09h17.34.134060 +0200,
C,5.wav,0,0,0,19,19,0,None,1,,,,,,,,,,,,,0,19,19,19,,,,,,,,,,,,,58.55803849999211,,,,,,,,,,,,,,,,,,,,58.5462062000006,58.55803849999211,58.55803849999211,59.04095419999794,,60.539977500011446,None,1,,,,,,,,,,,,,,,,,,,,,,,,,,,,,,,,,,,4,001,2026-04-28_09h17.26.978,untitled,,2025.1.1,60.03546895955558,2026-04-28 09h17.34.134060 +0200,
A,2.wav,0,0,0,20,20,0,None,1,,,,,,,,,,,,,0,20,20,20,,,,,,,,,,,,,60.556332500011194,,,,,,,,,,,,,,,,,,,,60.541580899996916,60.556332500011194,60.556332500011194,61.03933540001162,62.55483810001169,62.555068899993785,None,1,,,,,,,,,,,,,,,,,,,,,,,,,,,,,,,,,,,4,001,2026-04-28_09h17.26.978,untitled,,2025.1.1,60.03546895955558,2026-04-28 09h17.34.134060 +0200,
N,7.wav,0,0,0,21,21,0,space,0,1.100970800005598,0.1040289000084158,,,,,,,,,,,0,21,21,21,,,,,,,,,,,,,62.57140529999742,,,,,,,,,,,,,,,,,,,,62.55656799999997,62.57140529999742,62.57140529999742,63.05432289998862,,64.5534011000127,space,0,1.100970800005598,0.1040289000084158,,,,,,,,,,,,,,,,,,,,,,,,,,,,,,,,,4,001,2026-04-28_09h17.26.978,untitled,,2025.1.1,60.03546895955558,2026-04-28 09h17.34.134060 +0200,
S,2.wav,0,1,0,22,22,0,None,1,,,,,,,,,,,,,0,22,22,22,,,,,,,,,,,,,64.56961569999112,,,,,,,,,,,,,,,,,,,,64.55776140000671,64.56961569999112,64.56961569999112,65.05274740001187,,66.55172489999677,None,1,,,,,,,,,,,,,,,,,,,,,,,,,,,,,,,,,,,4,001,2026-04-28_09h17.26.978,untitled,,2025.1.1,60.03546895955558,2026-04-28 09h17.34.134060 +0200,
D,8.wav,0,0,0,23,23,0,space,0,1.5641700999985915,0.09401230001822114,,,,,,,,,,,0,23,23,23,,,,,,,,,,,,,66.56811349999043,,,,,,,,,,,,,,,,,,,,66.55304739999701,66.56811349999043,66.56811349999043,67.05115620000288,,68.55010190000758,space,0,1.5641700999985915,0.09401230001822114,,,,,,,,,,,,,,,,,,,,,,,,,,,,,,,,,4,001,2026-04-28_09h17.26.978,untitled,,2025.1.1,60.03546895955558,2026-04-28 09h17.34.134060 +0200,
,,,,,,,,,,,,,,,,,,,,,,,,,,,,,,,,,,,,,,,,,,,,,,,,,,,,,,,,,,,,,,,,,,,,68.55024380001123,68.56665319998865,68.56665319998865,78.15903680000338,space,9.581906000006711,None,,,,,,,,,,,,,,,,,,,,,,,,,,4,001,2026-04-28_09h17.26.978,untitled,,2025.1.1,60.03546895955558,2026-04-28 09h17.34.134060 +0200,
D,5.wav,0,0,0,0,0,0,,,,,bloc_a.xlsx,None,1,,,,,,,,,,,,0,0,0,0,0,0,0,0,0,0,0,0,78.18071509999572,,,,,,,,,,,,,,,,,,,,,,,,,,,,,,,,,,,,,78.17844079999486,78.18071509999572,78.67502960001002,80.17374930001097,None,1,,,,,,,,,,,,,,,,,,,,4,001,2026-04-28_09h17.26.978,untitled,,2025.1.1,60.03546895955558,2026-04-28 09h17.34.134060 +0200,
W,2.wav,0,0,0,1,1,0,,,,,bloc_a.xlsx,None,1,,,,,,,,,,,,0,0,0,0,0,0,0,0,0,1,1,1,80.19031060000998,,,,,,,,,,,,,,,,,,,,,,,,,,,,,,,,,,,,,80.17887930001598,80.19031060000998,80.67351670001517,82.17215120000765,None,1,,,,,,,,,,,,,,,,,,,,4,001,2026-04-28_09h17.26.978,untitled,,2025.1.1,60.03546895955558,2026-04-28 09h17.34.134060 +0200,
C,5.wav,0,1,0,2,2,0,,,,,bloc_a.xlsx,None,1,,,,,,,,,,,,0,0,0,0,0,0,0,0,0,2,2,2,82.18864179999218,,,,,,,,,,,,,,,,,,,,,,,,,,,,,,,,,,,,,82.17432449999615,82.18864179999218,82.67173249999178,84.17040719999932,None,1,,,,,,,,,,,,,,,,,,,,4,001,2026-04-28_09h17.26.978,untitled,,2025.1.1,60.03546895955558,2026-04-28 09h17.34.134060 +0200,
T,8.wav,0,0,0,3,3,0,,,,,bloc_a.xlsx,None,1,,,,,,,,,,,,0,0,0,0,0,0,0,0,0,3,3,3,84.18698709999444,,,,,,,,,,,,,,,,,,,,,,,,,,,,,,,,,,,,,84.17481920000864,84.18698709999444,84.67002610000782,86.1690721999912,None,1,,,,,,,,,,,,,,,,,,,,4,001,2026-04-28_09h17.26.978,untitled,,2025.1.1,60.03546895955558,2026-04-28 09h17.34.134060 +0200,
N,3.wav,0,0,0,4,4,0,,,,,bloc_a.xlsx,None,1,,,,,,,,,,,,0,0,0,0,0,0,0,0,0,4,4,4,86.18545879999874,,,,,,,,,,,,,,,,,,,,,,,,,,,,,,,,,,,,,86.17051440000068,86.18545879999874,86.668396699999,88.16724680000334,None,1,,,,,,,,,,,,,,,,,,,,4,001,2026-04-28_09h17.26.978,untitled,,2025.1.1,60.03546895955558,2026-04-28 09h17.34.134060 +0200,
C,5.wav,0,0,0,5,5,0,,,,,bloc_a.xlsx,space,0,1.3200305000063963,0.08951699998578988,,,,,,,,,,0,0,0,0,0,0,0,0,0,5,5,5,88.18366959999548,,,,,,,,,,,,,,,,,,,,,,,,,,,,,,,,,,,,,88.16890590000548,88.18366959999548,88.66669549999642,90.16556920000585,space,0,1.3200305000063963,0.08951699998578988,,,,,,,,,,,,,,,,,,4,001,2026-04-28_09h17.26.978,untitled,,2025.1.1,60.03546895955558,2026-04-28 09h17.34.134060 +0200,
N,4.wav,1,0,0,6,6,0,,,,,bloc_a.xlsx,None,0,,,,,,,,,,,,0,0,0,0,0,0,0,0,0,6,6,6,90.18213550001383,,,,,,,,,,,,,,,,,,,,,,,,,,,,,,,,,,,,,90.16798319999361,90.18213550001383,90.66505169999436,92.16386830000556,None,0,,,,,,,,,,,,,,,,,,,,4,001,2026-04-28_09h17.26.978,untitled,,2025.1.1,60.03546895955558,2026-04-28 09h17.34.134060 +0200,
D,2.wav,0,0,0,7,7,0,,,,,bloc_a.xlsx,space,0,1.8685392000188585,None,,,,,,,,,,0,0,0,0,0,0,0,0,0,7,7,7,92.18061010001111,,,,,,,,,,,,,,,,,,,,,,,,,,,,,,,,,,,,,92.1656617000117,92.18061010001111,92.66339520001202,94.16220930000418,space,0,1.8685392000188585,None,,,,,,,,,,,,,,,,,,4,001,2026-04-28_09h17.26.978,untitled,,2025.1.1,60.03546895955558,2026-04-28 09h17.34.134060 +0200,
R,4.wav,0,1,0,8,8,0,,,,,bloc_a.xlsx,None,1,,,,,,,,,,,,0,0,0,0,0,0,0,0,0,8,8,8,94.1786901000014,,,,,,,,,,,,,,,,,,,,,,,,,,,,,,,,,,,,,94.16370850001113,94.1786901000014,94.66173870000057,96.16062320000492,None,1,,,,,,,,,,,,,,,,,,,,4,001,2026-04-28_09h17.26.978,untitled,,2025.1.1,60.03546895955558,2026-04-28 09h17.34.134060 +0200,
A,7.wav,0,0,0,9,9,0,,,,,bloc_a.xlsx,None,1,,,,,,,,,,,,0,0,0,0,0,0,0,0,0,9,9,9,96.17712790000951,,,,,,,,,,,,,,,,,,,,,,,,,,,,,,,,,,,,,96.1623174000124,96.17712790000951,96.66012939999928,98.17561370000476,None,1,,,98.17547029998968,,,,,,,,,,,,,,,,,4,001,2026-04-28_09h17.26.978,untitled,,2025.1.1,60.03546895955558,2026-04-28 09h17.34.134060 +0200,
V,3.wav,0,0,0,10,10,0,,,,,bloc_a.xlsx,None,1,,,,,,,,,,,,0,0,0,0,0,0,0,0,0,10,10,10,98.19210000001476,,,,,,,,,,,,,,,,,,,,,,,,,,,,,,,,,,,,,98.17722979999962,98.19210000001476,98.67510049999692,100.17417489999207,None,1,,,,,,,,,,,,,,,,,,,,4,001,2026-04-28_09h17.26.978,untitled,,2025.1.1,60.03546895955558,2026-04-28 09h17.34.134060 +0200,
A,6.wav,1,0,0,11,11,0,,,,,bloc_a.xlsx,None,0,,,,,,,,,,,,0,0,0,0,0,0,0,0,0,11,11,11,100.19045200000983,,,,,,,,,,,,,,,,,,,,,,,,,,,,,,,,,,,,,100.1759590000147,100.19045200000983,100.6733763999946,102.17255640000803,None,0,,,,,,,,,,,,,,,,,,,,4,001,2026-04-28_09h17.26.978,untitled,,2025.1.1,60.03546895955558,2026-04-28 09h17.34.134060 +0200,
P,3.wav,0,1,0,12,12,0,,,,,bloc_a.xlsx,None,1,,,,,,,,,,,,0,0,0,0,0,0,0,0,0,12,12,12,102.18873580000945,,,,,,,,,,,,,,,,,,,,,,,,,,,,,,,,,,,,,102.17649310000706,102.18873580000945,102.67190909999772,104.17074649999267,None,1,,,,,,,,,,,,,,,,,,,,4,001,2026-04-28_09h17.26.978,untitled,,2025.1.1,60.03546895955558,2026-04-28 09h17.34.134060 +0200,
D,1.wav,0,0,0,13,13,0,,,,,bloc_a.xlsx,None,1,,,,,,,,,,,,0,0,0,0,0,0,0,0,0,13,13,13,104.18713690000004,,,,,,,,,,,,,,,,,,,,,,,,,,,,,,,,,,,,,104.17309719999321,104.18713690000004,104.67018720001215,106.16901169999619,None,1,,,,,,,,,,,,,,,,,,,,4,001,2026-04-28_09h17.26.978,untitled,,2025.1.1,60.03546895955558,2026-04-28 09h17.34.134060 +0200,
P,8.wav,1,0,0,14,14,0,,,,,bloc_a.xlsx,None,0,,,,,,,,,,,,0,0,0,0,0,0,0,0,0,14,14,14,106.18553350001457,,,,,,,,,,,,,,,,,,,,,,,,,,,,,,,,,,,,,106.17067809999571,106.18553350001457,106.66858389999834,108.16737300000386,None,0,,,,,,,,,,,,,,,,,,,,4,001,2026-04-28_09h17.26.978,untitled,,2025.1.1,60.03546895955558,2026-04-28 09h17.34.134060 +0200,
V,1.wav,0,1,0,15,15,0,,,,,bloc_a.xlsx,space,0,1.7555568999960087,0.1058725000184495,,,,,,,,,,0,0,0,0,0,0,0,0,0,15,15,15,108.18378839999787,,,,,,,,,,,,,,,,,,,,,,,,,,,,,,,,,,,,,108.16901420001523,108.18378839999787,108.66688860001159,110.16573060001247,space,0,1.7555568999960087,0.1058725000184495,,,,,,,,,,,,,,,,,,4,001,2026-04-28_09h17.26.978,untitled,,2025.1.1,60.03546895955558,2026-04-28 09h17.34.134060 +0200,
Y,3.wav,0,0,0,16,16,0,,,,,bloc_a.xlsx,None,1,,,,,,,,,,,,0,0,0,0,0,0,0,0,0,16,16,16,110.18212760001188,,,,,,,,,,,,,,,,,,,,,,,,,,,,,,,,,,,,,110.1698629000166,110.18212760001188,110.66511410000385,112.1644035000063,None,1,,,,,,,,,,,,,,,,,,,,4,001,2026-04-28_09h17.26.978,untitled,,2025.1.1,60.03546895955558,2026-04-28 09h17.34.134060 +0200,
V,7.wav,1,0,0,17,17,0,,,,,bloc_a.xlsx,None,0,,,,,,,,,,,,0,0,0,0,0,0,0,0,0,17,17,17,112.18065260001458,,,,,,,,,,,,,,,,,,,,,,,,,,,,,,,,,,,,,112.16633860001457,112.18065260001458,112.66364380001323,114.16256379999686,None,0,,,,,,,,,,,,,,,,,,,,4,001,2026-04-28_09h17.26.978,untitled,,2025.1.1,60.03546895955558,2026-04-28 09h17.34.134060 +0200,
N,5.wav,0,0,0,18,18,0,,,,,bloc_a.xlsx,None,1,,,,,,,,,,,,0,0,0,0,0,0,0,0,0,18,18,18,114.1789747000148,,,,,,,,,,,,,,,,,,,,,,,,,,,,,,,,,,,,,114.16427280000062,114.1789747000148,114.66191769999568,116.16091140001663,None,1,,,,,,,,,,,,,,,,,,,,4,001,2026-04-28_09h17.26.978,untitled,,2025.1.1,60.03546895955558,2026-04-28 09h17.34.134060 +0200,
A,4.wav,0,0,0,19,19,0,,,,,bloc_a.xlsx,None,1,,,,,,,,,,,,0,0,0,0,0,0,0,0,0,19,19,19,116.17728709999938,,,,,,,,,,,,,,,,,,,,,,,,,,,,,,,,,,,,,116.16298970000935,116.17728709999938,116.66032880000421,118.1757797000173,None,1,,,118.17554980001296,,,,,,,,,,,,,,,,,4,001,2026-04-28_09h17.26.978,untitled,,2025.1.1,60.03546895955558,2026-04-28 09h17.34.134060 +0200,
N,5.wav,1,1,1,20,20,0,,,,,bloc_a.xlsx,None,0,,,,,,,,,,,,0,0,0,0,0,0,0,0,0,20,20,20,118.19241059999331,,,,,,,,,,,,,,,,,,,,,,,,,,,,,,,,,,,,,118.17750660001184,118.19241059999331,118.67510600000969,120.17414409999037,None,0,,,120.17396839999128,,,,,,,,,,,,,,,,,4,001,2026-04-28_09h17.26.978,untitled,,2025.1.1,60.03546895955558,2026-04-28 09h17.34.134060 +0200,
M,1.wav,0,0,0,21,21,0,,,,,bloc_a.xlsx,None,1,,,,,,,,,,,,0,0,0,0,0,0,0,0,0,21,21,21,120.19062730000587,,,,,,,,,,,,,,,,,,,,,,,,,,,,,,,,,,,,,120.17633809999097,120.19062730000587,120.67362640000647,122.17243810000946,None,1,,,,,,,,,,,,,,,,,,,,4,001,2026-04-28_09h17.26.978,untitled,,2025.1.1,60.03546895955558,2026-04-28 09h17.34.134060 +0200,
J,8.wav,0,0,0,22,22,0,,,,,bloc_a.xlsx,None,1,,,,,,,,,,,,0,0,0,0,0,0,0,0,0,22,22,22,122.18912910000654,,,,,,,,,,,,,,,,,,,,,,,,,,,,,,,,,,,,,122.17684990001726,122.18912910000654,122.67190310001024,124.17082160001155,None,1,,,,,,,,,,,,,,,,,,,,4,001,2026-04-28_09h17.26.978,untitled,,2025.1.1,60.03546895955558,2026-04-28 09h17.34.134060 +0200,
T,3.wav,0,0,0,23,23,0,,,,,bloc_a.xlsx,None,1,,,,,,,,,,,,0,0,0,0,0,0,0,0,0,23,23,23,124.18733600000269,,,,,,,,,,,,,,,,,,,,,,,,,,,,,,,,,,,,,124.17240949999541,124.18733600000269,124.67020769999363,126.16915020000306,None,1,,,,,,,,,,,,,,,,,,,,4,001,2026-04-28_09h17.26.978,untitled,,2025.1.1,60.03546895955558,2026-04-28 09h17.34.134060 +0200,
J,5.wav,1,0,0,24,24,0,,,,,bloc_a.xlsx,space,1,1.4843557999993209,0.1322183000156656,,,,,,,,,,0,0,0,0,0,0,0,0,0,24,24,24,126.18580919998931,,,,,,,,,,,,,,,,,,,,,,,,,,,,,,,,,,,,,126.17056950001279,126.18580919998931,126.66866689999006,128.16762779999408,space,1,1.4843557999993209,0.1322183000156656,,,,,,,,,,,,,,,,,,4,001,2026-04-28_09h17.26.978,untitled,,2025.1.1,60.03546895955558,2026-04-28 09h17.34.134060 +0200,
B,3.wav,0,1,0,25,25,0,,,,,bloc_a.xlsx,None,1,,,,,,,,,,,,0,0,0,0,0,0,0,0,0,25,25,25,128.1841883000161,,,,,,,,,,,,,,,,,,,,,,,,,,,,,,,,,,,,,128.16897120000795,128.1841883000161,128.6669848000165,130.16575270000612,None,1,,,,,,,,,,,,,,,,,,,,4,001,2026-04-28_09h17.26.978,untitled,,2025.1.1,60.03546895955558,2026-04-28 09h17.34.134060 +0200,
V,8.wav,0,0,0,26,26,0,,,,,bloc_a.xlsx,None,1,,,,,,,,,,,,0,0,0,0,0,0,0,0,0,26,26,26,130.1824276999978,,,,,,,,,,,,,,,,,,,,,,,,,,,,,,,,,,,,,130.16752690001158,130.1824276999978,130.6654094000114,132.16429129999597,None,1,,,,,,,,,,,,,,,,,,,,4,001,2026-04-28_09h17.26.978,untitled,,2025.1.1,60.03546895955558,2026-04-28 09h17.34.134060 +0200,
B,1.wav,1,0,0,27,27,0,,,,,bloc_a.xlsx,None,0,,,,,,,,,,,,0,0,0,0,0,0,0,0,0,27,27,27,132.18084829999134,,,,,,,,,,,,,,,,,,,,,,,,,,,,,,,,,,,,,132.16585039999336,132.18084829999134,132.66367169999285,134.162616000016,None,0,,,,,,,,,,,,,,,,,,,,4,001,2026-04-28_09h17.26.978,untitled,,2025.1.1,60.03546895955558,2026-04-28 09h17.34.134060 +0200,
M,4.wav,0,0,0,28,28,0,,,,,bloc_a.xlsx,None,1,,,,,,,,,,,,0,0,0,0,0,0,0,0,0,28,28,28,134.17931400000816,,,,,,,,,,,,,,,,,,,,,,,,,,,,,,,,,,,,,134.16417030000594,134.17931400000816,134.6621310999908,136.16106909999507,None,1,,,,,,,,,,,,,,,,,,,,4,001,2026-04-28_09h17.26.978,untitled,,2025.1.1,60.03546895955558,2026-04-28 09h17.34.134060 +0200,
R,6.wav,0,0,0,29,29,0,,,,,bloc_a.xlsx,None,1,,,,,,,,,,,,0,0,0,0,0,0,0,0,0,29,29,29,136.1776036999945,,,,,,,,,,,,,,,,,,,,,,,,,,,,,,,,,,,,,136.16280340001686,136.1776036999945,136.66054440001608,138.17613410000922,None,1,,,138.17601130000548,,,,,,,,,,,,,,,,,4,001,2026-04-28_09h17.26.978,untitled,,2025.1.1,60.03546895955558,2026-04-28 09h17.34.134060 +0200,
N,4.wav,0,1,0,30,30,0,,,,,bloc_a.xlsx,None,1,,,,,,,,,,,,0,0,0,0,0,0,0,0,0,30,30,30,138.19273080001585,,,,,,,,,,,,,,,,,,,,,,,,,,,,,,,,,,,,,138.17763799999375,138.19273080001585,138.6588005000085,140.1745072999911,None,1,,,140.17436589999124,,,,,,,,,,,,,,,,,4,001,2026-04-28_09h17.26.978,untitled,,2025.1.1,60.03546895955558,2026-04-28 09h17.34.134060 +0200,
A,8.wav,0,0,0,31,31,0,,,,,bloc_a.xlsx,None,1,,,,,,,,,,,,0,0,0,0,0,0,0,0,0,31,31,31,140.19090000001597,,,,,,,,,,,,,,,,,,,,,,,,,,,,,,,,,,,,,140.176178099995,140.19090000001597,140.67392840000684,142.1729014000157,None,1,,,,,,,,,,,,,,,,,,,,4,001,2026-04-28_09h17.26.978,untitled,,2025.1.1,60.03546895955558,2026-04-28 09h17.34.134060 +0200,
Y,7.wav,0,0,0,32,32,0,,,,,bloc_a.xlsx,None,1,,,,,,,,,,,,0,0,0,0,0,0,0,0,0,32,32,32,142.18948329999694,,,,,,,,,,,,,,,,,,,,,,,,,,,,,,,,,,,,,142.17446529999143,142.18948329999694,142.67238890001317,144.17115840001497,None,1,,,,,,,,,,,,,,,,,,,,4,001,2026-04-28_09h17.26.978,untitled,,2025.1.1,60.03546895955558,2026-04-28 09h17.34.134060 +0200,
A,6.wav,1,0,0,33,33,0,,,,,bloc_a.xlsx,None,0,,,,,,,,,,,,0,0,0,0,0,0,0,0,0,33,33,33,144.18764550000196,,,,,,,,,,,,,,,,,,,,,,,,,,,,,,,,,,,,,144.17325160000473,144.18764550000196,144.67053150001448,146.16962890001014,None,0,,,,,,,,,,,,,,,,,,,,4,001,2026-04-28_09h17.26.978,untitled,,2025.1.1,60.03546895955558,2026-04-28 09h17.34.134060 +0200,
X,8.wav,0,0,0,34,34,0,,,,,bloc_a.xlsx,None,1,,,,,,,,,,,,0,0,0,0,0,0,0,0,0,34,34,34,146.18599150000955,,,,,,,,,,,,,,,,,,,,,,,,,,,,,,,,,,,,,146.17100269999355,146.18599150000955,146.66908739999053,148.16790289999335,None,1,,,,,,,,,,,,,,,,,,,,4,001,2026-04-28_09h17.26.978,untitled,,2025.1.1,60.03546895955558,2026-04-28 09h17.34.134060 +0200,
G,7.wav,0,0,0,35,35,0,,,,,bloc_a.xlsx,None,1,,,,,,,,,,,,0,0,0,0,0,0,0,0,0,35,35,35,148.18427930001053,,,,,,,,,,,,,,,,,,,,,,,,,,,,,,,,,,,,,148.16967669999576,148.18427930001053,148.66732860001503,150.1663988000073,None,1,,,,,,,,,,,,,,,,,,,,4,001,2026-04-28_09h17.26.978,untitled,,2025.1.1,60.03546895955558,2026-04-28 09h17.34.134060 +0200,
Q,8.wav,0,1,0,36,36,0,,,,,bloc_a.xlsx,None,1,,,,,,,,,,,,0,0,0,0,0,0,0,0,0,36,36,36,150.18277690000832,,,,,,,,,,,,,,,,,,,,,,,,,,,,,,,,,,,,,150.17292070001713,150.18277690000832,150.6656009000144,152.16463909999584,None,1,,,,,,,,,,,,,,,,,,,,4,001,2026-04-28_09h17.26.978,untitled,,2025.1.1,60.03546895955558,2026-04-28 09h17.34.134060 +0200,
C,4.wav,0,0,0,37,37,0,,,,,bloc_a.xlsx,None,1,,,,,,,,,,,,0,0,0,0,0,0,0,0,0,37,37,37,152.18105290000676,,,,,,,,,,,,,,,,,,,,,,,,,,,,,,,,,,,,,152.16653550000046,152.18105290000676,152.66400710001471,154.16296670000884,None,1,,,,,,,,,,,,,,,,,,,,4,001,2026-04-28_09h17.26.978,untitled,,2025.1.1,60.03546895955558,2026-04-28 09h17.34.134060 +0200,
Z,3.wav,0,0,0,38,38,0,,,,,bloc_a.xlsx,None,1,,,,,,,,,,,,0,0,0,0,0,0,0,0,0,38,38,38,154.17936919999192,,,,,,,,,,,,,,,,,,,,,,,,,,,,,,,,,,,,,154.16856960000587,154.17936919999192,154.6623602999898,156.1613759000029,None,1,,,,,,,,,,,,,,,,,,,,4,001,2026-04-28_09h17.26.978,untitled,,2025.1.1,60.03546895955558,2026-04-28 09h17.34.134060 +0200,
F,6.wav,0,0,0,39,39,0,,,,,bloc_a.xlsx,None,1,,,,,,,,,,,,0,0,0,0,0,0,0,0,0,39,39,39,156.1777879000001,,,,,,,,,,,,,,,,,,,,,,,,,,,,,,,,,,,,,156.16334639998968,156.1777879000001,156.66076289999182,158.17616740000085,None,1,,,158.1760547000158,,,,,,,,,,,,,,,,,4,001,2026-04-28_09h17.26.978,untitled,,2025.1.1,60.03546895955558,2026-04-28 09h17.34.134060 +0200,
Z,1.wav,1,0,0,40,40,0,,,,,bloc_a.xlsx,None,0,,,,,,,,,,,,0,0,0,0,0,0,0,0,0,40,40,40,158.19261120000738,,,,,,,,,,,,,,,,,,,,,,,,,,,,,,,,,,,,,158.17762450000737,158.19261120000738,158.65901219999068,160.1745796999894,None,0,,,160.17443499999354,,,,,,,,,,,,,,,,,4,001,2026-04-28_09h17.26.978,untitled,,2025.1.1,60.03546895955558,2026-04-28 09h17.34.134060 +0200,
N,3.wav,0,0,0,41,41,0,,,,,bloc_a.xlsx,None,1,,,,,,,,,,,,0,0,0,0,0,0,0,0,0,41,41,41,160.19104639999568,,,,,,,,,,,,,,,,,,,,,,,,,,,,,,,,,,,,,160.17663570001605,160.19104639999568,160.67417780001415,162.1730411000026,None,1,,,,,,,,,,,,,,,,,,,,4,001,2026-04-28_09h17.26.978,untitled,,2025.1.1,60.03546895955558,2026-04-28 09h17.34.134060 +0200,
Y,1.wav,0,1,0,42,42,0,,,,,bloc_a.xlsx,None,1,,,,,,,,,,,,0,0,0,0,0,0,0,0,0,42,42,42,162.1894397000142,,,,,,,,,,,,,,,,,,,,,,,,,,,,,,,,,,,,,162.17463650001446,162.1894397000142,162.67240030001267,164.1714178000111,None,1,,,,,,,,,,,,,,,,,,,,4,001,2026-04-28_09h17.26.978,untitled,,2025.1.1,60.03546895955558,2026-04-28 09h17.34.134060 +0200,
H,7.wav,0,0,0,43,43,0,,,,,bloc_a.xlsx,None,1,,,,,,,,,,,,0,0,0,0,0,0,0,0,0,43,43,43,164.18777730001602,,,,,,,,,,,,,,,,,,,,,,,,,,,,,,,,,,,,,164.1729759000009,164.18777730001602,164.6708074999915,166.16967910001404,None,1,,,,,,,,,,,,,,,,,,,,4,001,2026-04-28_09h17.26.978,untitled,,2025.1.1,60.03546895955558,2026-04-28 09h17.34.134060 +0200,
C,4.wav,0,0,0,44,44,0,,,,,bloc_a.xlsx,None,1,,,,,,,,,,,,0,0,0,0,0,0,0,0,0,44,44,44,166.1859994000115,,,,,,,,,,,,,,,,,,,,,,,,,,,,,,,,,,,,,166.1711612000072,166.1859994000115,166.66913100000238,168.1679390000063,None,1,,,,,,,,,,,,,,,,,,,,4,001,2026-04-28_09h17.26.978,untitled,,2025.1.1,60.03546895955558,2026-04-28 09h17.34.134060 +0200,
Y,7.wav,0,1,0,45,45,0,,,,,bloc_a.xlsx,space,0,1.3845835000101943,0.10985579999396577,,,,,,,,,,0,0,0,0,0,0,0,0,0,45,45,45,168.18445130001055,,,,,,,,,,,,,,,,,,,,,,,,,,,,,,,,,,,,,168.16983460000483,168.18445130001055,168.6674525999988,170.16655570000876,space,0,1.3845835000101943,0.10985579999396577,,,,,,,,,,,,,,,,,,4,001,2026-04-28_09h17.26.978,untitled,,2025.1.1,60.03546895955558,2026-04-28 09h17.34.134060 +0200,
B,6.wav,0,0,0,46,46,0,,,,,bloc_a.xlsx,None,1,,,,,,,,,,,,0,0,0,0,0,0,0,0,0,46,46,46,170.18277030001627,,,,,,,,,,,,,,,,,,,,,,,,,,,,,,,,,,,,,170.16809300001478,170.18277030001627,170.66574120000587,172.1646730999928,None,1,,,,,,,,,,,,,,,,,,,,4,001,2026-04-28_09h17.26.978,untitled,,2025.1.1,60.03546895955558,2026-04-28 09h17.34.134060 +0200,
Y,5.wav,1,0,0,47,47,0,,,,,bloc_a.xlsx,None,0,,,,,,,,,,,,0,0,0,0,0,0,0,0,0,47,47,47,172.18127420000383,,,,,,,,,,,,,,,,,,,,,,,,,,,,,,,,,,,,,172.1662961000111,172.18127420000383,172.6641559000127,174.16306210000766,None,0,,,,,,,,,,,,,,,,,,,,4,001,2026-04-28_09h17.26.978,untitled,,2025.1.1,60.03546895955558,2026-04-28 09h17.34.134060 +0200,
T,7.wav,0,0,0,48,48,0,,,,,bloc_a.xlsx,None,1,,,,,,,,,,,,0,0,0,0,0,0,0,0,0,48,48,48,174.1794756000163,,,,,,,,,,,,,,,,,,,,,,,,,,,,,,,,,,,,,174.16489879999426,174.1794756000163,174.66252250000252,176.16134349998902,None,1,,,,,,,,,,,,,,,,,,,,4,001,2026-04-28_09h17.26.978,untitled,,2025.1.1,60.03546895955558,2026-04-28 09h17.34.134060 +0200,
N,2.wav,0,0,0,49,49,0,,,,,bloc_a.xlsx,space,0,1.4633094999880996,0.1216613000142388,,,,,,,,,,0,0,0,0,0,0,0,0,0,49,49,49,176.17784190000384,,,,,,,,,,,,,,,,,,,,,,,,,,,,,,,,,,,,,176.1628592000052,176.17784190000384,176.66098630000488,178.1599111999967,space,0,1.4633094999880996,0.1216613000142388,,,,,,,,,,,,,,,,,,4,001,2026-04-28_09h17.26.978,untitled,,2025.1.1,60.03546895955558,2026-04-28 09h17.34.134060 +0200,
,,,,,0,0,0,,,,,bloc_a.xlsx,,,,,,,,,,,,,,0,0,0,0,0,0,0,0,,,,,,,,,,,,,,,,,,,,,,,,,,,,,,,,,,,,,,,,,,,,,,,,,,,,,,,,,,,,,,,,,,,4,001,2026-04-28_09h17.26.978,untitled,,2025.1.1,60.03546895955558,2026-04-28 09h17.34.134060 +0200,
P,3.wav,0,0,0,0,0,0,,,,,bloc_b.xlsx,None,1,,,,,,,,,,,,0,0,0,0,0,1,1,2,0,0,0,0,178.24481860001106,,,,,,,,,,,,,,,,,,,,,,,,,,,,,,,,,,,,,178.2434043000103,178.24481860001106,178.65931610000553,180.17465800000355,None,1,,,180.1745443000109,,,,,,,,,,,,,,,,,4,001,2026-04-28_09h17.26.978,untitled,,2025.1.1,60.03546895955558,2026-04-28 09h17.34.134060 +0200,
N,1.wav,0,0,0,1,1,0,,,,,bloc_b.xlsx,None,0,,,,,,,,,,,,0,0,0,0,0,1,1,2,0,1,1,1,180.19143480001367,,,,,,,,,,,,,,,,,,,,,,,,,,,,,,,,,,,,,180.1763542999979,180.19143480001367,180.6743368000025,182.17317449999973,None,0,,,,,,,,,,,,,,,,,,,,4,001,2026-04-28_09h17.26.978,untitled,,2025.1.1,60.03546895955558,2026-04-28 09h17.34.134060 +0200,
U,2.wav,0,0,0,2,2,0,,,,,bloc_b.xlsx,None,1,,,,,,,,,,,,0,0,0,0,0,1,1,2,0,2,2,2,182.1897367000056,,,,,,,,,,,,,,,,,,,,,,,,,,,,,,,,,,,,,182.17744259999017,182.1897367000056,182.6725557000027,184.17140339998878,None,1,,,,,,,,,,,,,,,,,,,,4,001,2026-04-28_09h17.26.978,untitled,,2025.1.1,60.03546895955558,2026-04-28 09h17.34.134060 +0200,
J,6.wav,0,0,0,3,3,0,,,,,bloc_b.xlsx,None,1,,,,,,,,,,,,0,0,0,0,0,1,1,2,0,3,3,3,184.18809330000659,,,,,,,,,,,,,,,,,,,,,,,,,,,,,,,,,,,,,184.17388129999745,184.18809330000659,184.67099320000852,186.16979569999967,None,1,,,,,,,,,,,,,,,,,,,,4,001,2026-04-28_09h17.26.978,untitled,,2025.1.1,60.03546895955558,2026-04-28 09h17.34.134060 +0200,
U,2.wav,1,1,1,4,4,0,,,,,bloc_b.xlsx,None,0,,,,,,,,,,,,0,0,0,0,0,1,1,2,0,4,4,4,186.18640470001264,,,,,,,,,,,,,,,,,,,,,,,,,,,,,,,,,,,,,186.17162979999557,186.18640470001264,186.66929640001035,188.1681397999928,None,0,,,,,,,,,,,,,,,,,,,,4,001,2026-04-28_09h17.26.978,untitled,,2025.1.1,60.03546895955558,2026-04-28 09h17.34.134060 +0200,
F,8.wav,0,0,0,5,5,0,,,,,bloc_b.xlsx,None,1,,,,,,,,,,,,0,0,0,0,0,1,1,2,0,5,5,5,188.18478189999587,,,,,,,,,,,,,,,,,,,,,,,,,,,,,,,,,,,,,188.1698144999973,188.18478189999587,188.66771969999536,190.16652639998938,None,1,,,,,,,,,,,,,,,,,,,,4,001,2026-04-28_09h17.26.978,untitled,,2025.1.1,60.03546895955558,2026-04-28 09h17.34.134060 +0200,
V,5.wav,0,0,0,6,6,0,,,,,bloc_b.xlsx,None,1,,,,,,,,,,,,0,0,0,0,0,1,1,2,0,6,6,6,190.1831544000015,,,,,,,,,,,,,,,,,,,,,,,,,,,,,,,,,,,,,190.16822940000566,190.1831544000015,190.6660269999993,192.16486140000052,None,1,,,,,,,,,,,,,,,,,,,,4,001,2026-04-28_09h17.26.978,untitled,,2025.1.1,60.03546895955558,2026-04-28 09h17.34.134060 +0200,
F,7.wav,1,0,0,7,7,0,,,,,bloc_b.xlsx,space,1,1.6872093999991193,0.12382820001221262,,,,,,,,,,0,0,0,0,0,1,1,2,0,7,7,7,192.18158669999684,,,,,,,,,,,,,,,,,,,,,,,,,,,,,,,,,,,,,192.1666896000097,192.18158669999684,192.66439150000224,194.16347140001017,space,1,1.6872093999991193,0.12382820001221262,,,,,,,,,,,,,,,,,,4,001,2026-04-28_09h17.26.978,untitled,,2025.1.1,60.03546895955558,2026-04-28 09h17.34.134060 +0200,
P,2.wav,0,0,0,8,8,0,,,,,bloc_b.xlsx,None,1,,,,,,,,,,,,0,0,0,0,0,1,1,2,0,8,8,8,194.17984060000163,,,,,,,,,,,,,,,,,,,,,,,,,,,,,,,,,,,,,194.16497020001407,194.17984060000163,194.66282960001263,196.16178550000768,None,1,,,,,,,,,,,,,,,,,,,,4,001,2026-04-28_09h17.26.978,untitled,,2025.1.1,60.03546895955558,2026-04-28 09h17.34.134060 +0200,
N,7.wav,0,1,0,9,9,0,,,,,bloc_b.xlsx,None,1,,,,,,,,,,,,0,0,0,0,0,1,1,2,0,9,9,9,196.1782485000149,,,,,,,,,,,,,,,,,,,,,,,,,,,,,,,,,,,,,196.16411159999552,196.1782485000149,196.6611063000164,198.16001610000967,None,1,,,,,,,,,,,,,,,,,,,,4,001,2026-04-28_09h17.26.978,untitled,,2025.1.1,60.03546895955558,2026-04-28 09h17.34.134060 +0200,
C,5.wav,0,0,0,10,10,0,,,,,bloc_b.xlsx,None,1,,,,,,,,,,,,0,0,0,0,0,1,1,2,0,10,10,10,198.17652660000022,,,,,,,,,,,,,,,,,,,,,,,,,,,,,,,,,,,,,198.16158590000123,198.17652660000022,198.65948679999565,200.1753016000148,None,1,,,200.17505150000216,,,,,,,,,,,,,,,,,4,001,2026-04-28_09h17.26.978,untitled,,2025.1.1,60.03546895955558,2026-04-28 09h17.34.134060 +0200,
L,6.wav,0,0,0,11,11,0,,,,,bloc_b.xlsx,None,1,,,,,,,,,,,,0,0,0,0,0,1,1,2,0,11,11,11,200.19145509999362,,,,,,,,,,,,,,,,,,,,,,,,,,,,,,,,,,,,,200.17660929998965,200.19145509999362,200.6745804999955,202.1734424000024,None,1,,,,,,,,,,,,,,,,,,,,4,001,2026-04-28_09h17.26.978,untitled,,2025.1.1,60.03546895955558,2026-04-28 09h17.34.134060 +0200,
E,1.wav,0,0,0,12,12,0,,,,,bloc_b.xlsx,None,1,,,,,,,,,,,,0,0,0,0,0,1,1,2,0,12,12,12,202.1898451000161,,,,,,,,,,,,,,,,,,,,,,,,,,,,,,,,,,,,,202.1777446999913,202.1898451000161,202.67293460000656,204.17162420001114,None,1,,,,,,,,,,,,,,,,,,,,4,001,2026-04-28_09h17.26.978,untitled,,2025.1.1,60.03546895955558,2026-04-28 09h17.34.134060 +0200,
K,5.wav,0,0,0,13,13,0,,,,,bloc_b.xlsx,None,1,,,,,,,,,,,,0,0,0,0,0,1,1,2,0,13,13,13,204.18822300000465,,,,,,,,,,,,,,,,,,,,,,,,,,,,,,,,,,,,,204.17553800001042,204.18822300000465,204.6712758000067,206.17020910000429,None,1,,,,,,,,,,,,,,,,,,,,4,001,2026-04-28_09h17.26.978,untitled,,2025.1.1,60.03546895955558,2026-04-28 09h17.34.134060 +0200,
E,1.wav,1,1,1,14,14,0,,,,,bloc_b.xlsx,None,0,,,,,,,,,,,,0,0,0,0,0,1,1,2,0,14,14,14,206.18672779999906,,,,,,,,,,,,,,,,,,,,,,,,,,,,,,,,,,,,,206.1715816000069,206.18672779999906,206.6695092000009,208.16861459999927,None,0,,,,,,,,,,,,,,,,,,,,4,001,2026-04-28_09h17.26.978,untitled,,2025.1.1,60.03546895955558,2026-04-28 09h17.34.134060 +0200,
U,7.wav,0,0,0,15,15,0,,,,,bloc_b.xlsx,None,1,,,,,,,,,,,,0,0,0,0,0,1,1,2,0,15,15,15,208.18505649999133,,,,,,,,,,,,,,,,,,,,,,,,,,,,,,,,,,,,,208.17080150000402,208.18505649999133,208.6679703000118,210.16701030000695,None,1,,,,,,,,,,,,,,,,,,,,4,001,2026-04-28_09h17.26.978,untitled,,2025.1.1,60.03546895955558,2026-04-28 09h17.34.134060 +0200,
X,3.wav,0,0,0,16,16,0,,,,,bloc_b.xlsx,None,1,,,,,,,,,,,,0,0,0,0,0,1,1,2,0,16,16,16,210.18346990001737,,,,,,,,,,,,,,,,,,,,,,,,,,,,,,,,,,,,,210.16860440000892,210.18346990001737,210.66630579999764,212.1651541000174,None,1,,,,,,,,,,,,,,,,,,,,4,001,2026-04-28_09h17.26.978,untitled,,2025.1.1,60.03546895955558,2026-04-28 09h17.34.134060 +0200,
L,4.wav,0,0,0,17,17,0,,,,,bloc_b.xlsx,None,1,,,,,,,,,,,,0,0,0,0,0,1,1,2,0,17,17,17,212.1818864000088,,,,,,,,,,,,,,,,,,,,,,,,,,,,,,,,,,,,,212.16713730001356,212.1818864000088,212.66471670000465,214.16368600001442,None,1,,,,,,,,,,,,,,,,,,,,4,001,2026-04-28_09h17.26.978,untitled,,2025.1.1,60.03546895955558,2026-04-28 09h17.34.134060 +0200,
B,3.wav,0,1,0,18,18,0,,,,,bloc_b.xlsx,None,1,,,,,,,,,,,,0,0,0,0,0,1,1,2,0,18,18,18,214.18011069999193,,,,,,,,,,,,,,,,,,,,,,,,,,,,,,,,,,,,,214.16574220001348,214.18011069999193,214.66303490000428,216.16185679999762,None,1,,,,,,,,,,,,,,,,,,,,4,001,2026-04-28_09h17.26.978,untitled,,2025.1.1,60.03546895955558,2026-04-28 09h17.34.134060 +0200,
L,5.wav,1,0,0,19,19,0,,,,,bloc_b.xlsx,space,1,1.4561033000063617,0.11950689999503084,,,,,,,,,,0,0,0,0,0,1,1,2,0,19,19,19,216.17853689999902,,,,,,,,,,,,,,,,,,,,,,,,,,,,,,,,,,,,,216.16351720000966,216.17853689999902,216.6614555999986,218.16046199999982,space,1,1.4561033000063617,0.11950689999503084,,,,,,,,,,,,,,,,,,4,001,2026-04-28_09h17.26.978,untitled,,2025.1.1,60.03546895955558,2026-04-28 09h17.34.134060 +0200,
Q,2.wav,0,0,0,20,20,0,,,,,bloc_b.xlsx,None,1,,,,,,,,,,,,0,0,0,0,0,1,1,2,0,20,20,20,218.1768449000083,,,,,,,,,,,,,,,,,,,,,,,,,,,,,,,,,,,,,218.16371729999082,218.1768449000083,218.6597322000016,220.17530719999922,None,1,,,220.17513950000284,,,,,,,,,,,,,,,,,4,001,2026-04-28_09h17.26.978,untitled,,2025.1.1,60.03546895955558,2026-04-28 09h17.34.134060 +0200,
B,7.wav,0,0,0,21,21,0,,,,,bloc_b.xlsx,None,1,,,,,,,,,,,,0,0,0,0,0,1,1,2,0,21,21,21,220.191842500004,,,,,,,,,,,,,,,,,,,,,,,,,,,,,,,,,,,,,220.17701129999477,220.191842500004,220.67475790000753,222.17363390000537,None,1,,,,,,,,,,,,,,,,,,,,4,001,2026-04-28_09h17.26.978,untitled,,2025.1.1,60.03546895955558,2026-04-28 09h17.34.134060 +0200,
W,1.wav,0,0,0,22,22,0,,,,,bloc_b.xlsx,None,1,,,,,,,,,,,,0,0,0,0,0,1,1,2,0,22,22,22,222.19003349999548,,,,,,,,,,,,,,,,,,,,,,,,,,,,,,,,,,,,,222.1751818000048,222.19003349999548,222.67304570000852,224.17226729998947,None,1,,,,,,,,,,,,,,,,,,,,4,001,2026-04-28_09h17.26.978,untitled,,2025.1.1,60.03546895955558,2026-04-28 09h17.34.134060 +0200,
B,5.wav,1,0,0,23,23,0,,,,,bloc_b.xlsx,None,0,,,,,,,,,,,,0,0,0,0,0,1,1,2,0,23,23,23,224.18852520000655,,,,,,,,,,,,,,,,,,,,,,,,,,,,,,,,,,,,,224.1748290999967,224.18852520000655,224.67147299999488,226.17091010001604,None,0,,,,,,,,,,,,,,,,,,,,4,001,2026-04-28_09h17.26.978,untitled,,2025.1.1,60.03546895955558,2026-04-28 09h17.34.134060 +0200,
P,1.wav,0,1,0,24,24,0,,,,,bloc_b.xlsx,None,1,,,,,,,,,,,,0,0,0,0,0,1,1,2,0,24,24,24,226.18672289999085,,,,,,,,,,,,,,,,,,,,,,,,,,,,,,,,,,,,,226.17269140001736,226.18672289999085,226.66977999999654,228.16869220000808,None,1,,,,,,,,,,,,,,,,,,,,4,001,2026-04-28_09h17.26.978,untitled,,2025.1.1,60.03546895955558,2026-04-28 09h17.34.134060 +0200,
L,7.wav,0,0,0,25,25,0,,,,,bloc_b.xlsx,None,1,,,,,,,,,,,,0,0,0,0,0,1,1,2,0,25,25,25,228.1852324999927,,,,,,,,,,,,,,,,,,,,,,,,,,,,,,,,,,,,,228.17015700001502,228.1852324999927,228.66807529999642,230.16704339999706,None,1,,,,,,,,,,,,,,,,,,,,4,001,2026-04-28_09h17.26.978,untitled,,2025.1.1,60.03546895955558,2026-04-28 09h17.34.134060 +0200,
D,6.wav,0,0,0,26,26,0,,,,,bloc_b.xlsx,None,1,,,,,,,,,,,,0,0,0,0,0,1,1,2,0,26,26,26,230.18340660000104,,,,,,,,,,,,,,,,,,,,,,,,,,,,,,,,,,,,,230.16856369999005,230.18340660000104,230.6664779999992,232.1653234999976,None,1,,,,,,,,,,,,,,,,,,,,4,001,2026-04-28_09h17.26.978,untitled,,2025.1.1,60.03546895955558,2026-04-28 09h17.34.134060 +0200,
S,3.wav,0,0,0,27,27,0,,,,,bloc_b.xlsx,None,1,,,,,,,,,,,,0,0,0,0,0,1,1,2,0,27,27,27,232.18176900001708,,,,,,,,,,,,,,,,,,,,,,,,,,,,,,,,,,,,,232.16657020000275,232.18176900001708,232.6647304999933,234.16366500000004,None,1,,,,,,,,,,,,,,,,,,,,4,001,2026-04-28_09h17.26.978,untitled,,2025.1.1,60.03546895955558,2026-04-28 09h17.34.134060 +0200,
W,8.wav,0,0,0,28,28,0,,,,,bloc_b.xlsx,None,1,,,,,,,,,,,,0,0,0,0,0,1,1,2,0,28,28,28,234.18025679999846,,,,,,,,,,,,,,,,,,,,,,,,,,,,,,,,,,,,,234.16501779999817,234.18025679999846,234.6631541000097,236.16206289999536,None,1,,,,,,,,,,,,,,,,,,,,4,001,2026-04-28_09h17.26.978,untitled,,2025.1.1,60.03546895955558,2026-04-28 09h17.34.134060 +0200,
L,3.wav,0,1,0,29,29,0,,,,,bloc_b.xlsx,space,0,1.091519600013271,0.11541460000444204,,,,,,,,,,0,0,0,0,0,1,1,2,0,29,29,29,236.17845060001127,,,,,,,,,,,,,,,,,,,,,,,,,,,,,,,,,,,,,236.16382000001613,236.17845060001127,236.66143830001238,238.16066329999012,space,0,1.091519600013271,0.11541460000444204,,,,,,,,,,,,,,,,,,4,001,2026-04-28_09h17.26.978,untitled,,2025.1.1,60.03546895955558,2026-04-28 09h17.34.134060 +0200,
W,6.wav,1,0,0,30,30,0,,,,,bloc_b.xlsx,None,0,,,,,,,,,,,,0,0,0,0,0,1,1,2,0,30,30,30,238.17689850000897,,,,,,,,,,,,,,,,,,,,,,,,,,,,,,,,,,,,,238.16193349999958,238.17689850000897,238.65991740001482,240.17539509999915,None,0,,,240.17528339999262,,,,,,,,,,,,,,,,,4,001,2026-04-28_09h17.26.978,untitled,,2025.1.1,60.03546895955558,2026-04-28 09h17.34.134060 +0200,
H,1.wav,0,0,0,31,31,0,,,,,bloc_b.xlsx,None,1,,,,,,,,,,,,0,0,0,0,0,1,1,2,0,31,31,31,240.1920694000146,,,,,,,,,,,,,,,,,,,,,,,,,,,,,,,,,,,,,240.17696609999985,240.1920694000146,240.6747825999919,242.17370439998922,None,1,,,242.1735939999926,,,,,,,,,,,,,,,,,4,001,2026-04-28_09h17.26.978,untitled,,2025.1.1,60.03546895955558,2026-04-28 09h17.34.134060 +0200,
Y,4.wav,0,0,0,32,32,0,,,,,bloc_b.xlsx,None,1,,,,,,,,,,,,0,0,0,0,0,1,1,2,0,32,32,32,242.19035900000017,,,,,,,,,,,,,,,,,,,,,,,,,,,,,,,,,,,,,242.17525739999837,242.19035900000017,242.67328459999408,244.172135300003,None,1,,,,,,,,,,,,,,,,,,,,4,001,2026-04-28_09h17.26.978,untitled,,2025.1.1,60.03546895955558,2026-04-28 09h17.34.134060 +0200,
R,1.wav,0,1,0,33,33,0,,,,,bloc_b.xlsx,None,1,,,,,,,,,,,,0,0,0,0,0,1,1,2,0,33,33,33,244.18872410000768,,,,,,,,,,,,,,,,,,,,,,,,,,,,,,,,,,,,,244.17359980000765,244.18872410000768,244.67155639998964,246.17047740001,None,1,,,,,,,,,,,,,,,,,,,,4,001,2026-04-28_09h17.26.978,untitled,,2025.1.1,60.03546895955558,2026-04-28 09h17.34.134060 +0200,
J,8.wav,0,0,0,34,34,0,,,,,bloc_b.xlsx,None,1,,,,,,,,,,,,0,0,0,0,0,1,1,2,0,34,34,34,246.18699190000189,,,,,,,,,,,,,,,,,,,,,,,,,,,,,,,,,,,,,246.17200349998893,246.18699190000189,246.6699237000139,248.1687307000102,None,1,,,,,,,,,,,,,,,,,,,,4,001,2026-04-28_09h17.26.978,untitled,,2025.1.1,60.03546895955558,2026-04-28 09h17.34.134060 +0200,
R,5.wav,1,0,0,35,35,0,,,,,bloc_b.xlsx,None,0,,,,,,,,,,,,0,0,0,0,0,1,1,2,0,35,35,35,248.18556539999554,,,,,,,,,,,,,,,,,,,,,,,,,,,,,,,,,,,,,248.17021979999845,248.18556539999554,248.66824769999948,250.1670165999967,None,0,,,,,,,,,,,,,,,,,,,,4,001,2026-04-28_09h17.26.978,untitled,,2025.1.1,60.03546895955558,2026-04-28 09h17.34.134060 +0200,
S,2.wav,0,0,0,36,36,0,,,,,bloc_b.xlsx,None,1,,,,,,,,,,,,0,0,0,0,0,1,1,2,0,36,36,36,250.18389600000228,,,,,,,,,,,,,,,,,,,,,,,,,,,,,,,,,,,,,250.1683120999951,250.18389600000228,250.66651700000511,252.165616400016,None,1,,,,,,,,,,,,,,,,,,,,4,001,2026-04-28_09h17.26.978,untitled,,2025.1.1,60.03546895955558,2026-04-28 09h17.34.134060 +0200,
W,5.wav,0,1,0,37,37,0,,,,,bloc_b.xlsx,None,1,,,,,,,,,,,,0,0,0,0,0,1,1,2,0,37,37,37,252.1821389000106,,,,,,,,,,,,,,,,,,,,,,,,,,,,,,,,,,,,,252.16687730001286,252.1821389000106,252.66493890000856,254.16408909999882,None,1,,,254.16395159999956,,,,,,,,,,,,,,,,,4,001,2026-04-28_09h17.26.978,untitled,,2025.1.1,60.03546895955558,2026-04-28 09h17.34.134060 +0200,
S,8.wav,1,0,0,38,38,0,,,,,bloc_b.xlsx,None,0,,,,,,,,,,,,0,0,0,0,0,1,1,2,0,38,38,38,254.18066760001238,,,,,,,,,,,,,,,,,,,,,,,,,,,,,,,,,,,,,254.16584060000605,254.18066760001238,254.66318609999144,256.16221999999834,None,0,,,,,,,,,,,,,,,,,,,,4,001,2026-04-28_09h17.26.978,untitled,,2025.1.1,60.03546895955558,2026-04-28 09h17.34.134060 +0200,
V,1.wav,0,0,0,39,39,0,,,,,bloc_b.xlsx,None,1,,,,,,,,,,,,0,0,0,0,0,1,1,2,0,39,39,39,256.17889360000845,,,,,,,,,,,,,,,,,,,,,,,,,,,,,,,,,,,,,256.16398290000507,256.17889360000845,256.66166420001537,258.16054159999476,None,1,,,,,,,,,,,,,,,,,,,,4,001,2026-04-28_09h17.26.978,untitled,,2025.1.1,60.03546895955558,2026-04-28 09h17.34.134060 +0200,
M,4.wav,0,0,0,40,40,0,,,,,bloc_b.xlsx,None,1,,,,,,,,,,,,0,0,0,0,0,1,1,2,0,40,40,40,258.17723470000783,,,,,,,,,,,,,,,,,,,,,,,,,,,,,,,,,,,,,258.16199210000923,258.17723470000783,258.66005599999335,260.1757129000034,None,1,,,260.17558939999435,,,,,,,,,,,,,,,,,4,001,2026-04-28_09h17.26.978,untitled,,2025.1.1,60.03546895955558,2026-04-28 09h17.34.134060 +0200,
H,5.wav,0,0,0,41,41,0,,,,,bloc_b.xlsx,None,1,,,,,,,,,,,,0,0,0,0,0,1,1,2,0,41,41,41,260.1921491000103,,,,,,,,,,,,,,,,,,,,,,,,,,,,,,,,,,,,,260.17717099998845,260.1921491000103,260.6752340999956,262.17390950000845,None,1,,,,,,,,,,,,,,,,,,,,4,001,2026-04-28_09h17.26.978,untitled,,2025.1.1,60.03546895955558,2026-04-28 09h17.34.134060 +0200,
S,2.wav,0,0,0,42,42,0,,,,,bloc_b.xlsx,None,1,,,,,,,,,,,,0,0,0,0,0,1,1,2,0,42,42,42,262.1906328999903,,,,,,,,,,,,,,,,,,,,,,,,,,,,,,,,,,,,,262.17545640000026,262.1906328999903,262.67349580000155,264.1722318000102,None,1,,,,,,,,,,,,,,,,,,,,4,001,2026-04-28_09h17.26.978,untitled,,2025.1.1,60.03546895955558,2026-04-28 09h17.34.134060 +0200,
H,5.wav,1,1,1,43,43,0,,,,,bloc_b.xlsx,space,1,1.6617609999957494,0.10756170001695864,,,,,,,,,,0,0,0,0,0,1,1,2,0,43,43,43,264.18892290000804,,,,,,,,,,,,,,,,,,,,,,,,,,,,,,,,,,,,,264.1737049999938,264.18892290000804,264.671809499996,266.17072230001213,space,1,1.6617609999957494,0.10756170001695864,266.17061309999553,,,,,,,,,,,,,,,,,4,001,2026-04-28_09h17.26.978,untitled,,2025.1.1,60.03546895955558,2026-04-28 09h17.34.134060 +0200,
U,6.wav,0,0,0,44,44,0,,,,,bloc_b.xlsx,None,1,,,,,,,,,,,,0,0,0,0,0,1,1,2,0,44,44,44,266.1872496000142,,,,,,,,,,,,,,,,,,,,,,,,,,,,,,,,,,,,,266.1724654000136,266.1872496000142,266.6701839000161,268.16930420001154,None,1,,,,,,,,,,,,,,,,,,,,4,001,2026-04-28_09h17.26.978,untitled,,2025.1.1,60.03546895955558,2026-04-28 09h17.34.134060 +0200,
W,3.wav,0,0,0,45,45,0,,,,,bloc_b.xlsx,None,1,,,,,,,,,,,,0,0,0,0,0,1,1,2,0,45,45,45,268.1856814000057,,,,,,,,,,,,,,,,,,,,,,,,,,,,,,,,,,,,,268.1709055000101,268.1856814000057,268.66854430001695,270.16786230000434,None,1,,,,,,,,,,,,,,,,,,,,4,001,2026-04-28_09h17.26.978,untitled,,2025.1.1,60.03546895955558,2026-04-28 09h17.34.134060 +0200,
J,6.wav,0,1,0,46,46,0,,,,,bloc_b.xlsx,None,1,,,,,,,,,,,,0,0,0,0,0,1,1,2,0,46,46,46,270.1840729000105,,,,,,,,,,,,,,,,,,,,,,,,,,,,,,,,,,,,,270.16991500000586,270.1840729000105,270.66696740000043,272.16571980001754,None,1,,,,,,,,,,,,,,,,,,,,4,001,2026-04-28_09h17.26.978,untitled,,2025.1.1,60.03546895955558,2026-04-28 09h17.34.134060 +0200,
M,5.wav,0,0,0,47,47,0,,,,,bloc_b.xlsx,None,1,,,,,,,,,,,,0,0,0,0,0,1,1,2,0,47,47,47,272.1823521000042,,,,,,,,,,,,,,,,,,,,,,,,,,,,,,,,,,,,,272.167794900015,272.1823521000042,272.6652676000085,274.16398710000794,None,1,,,,,,,,,,,,,,,,,,,,4,001,2026-04-28_09h17.26.978,untitled,,2025.1.1,60.03546895955558,2026-04-28 09h17.34.134060 +0200,
J,1.wav,1,0,0,48,48,0,,,,,bloc_b.xlsx,None,0,,,,,,,,,,,,0,0,0,0,0,1,1,2,0,48,48,48,274.1806532999908,,,,,,,,,,,,,,,,,,,,,,,,,,,,,,,,,,,,,274.16563440000755,274.1806532999908,274.6636019000143,276.1625490000006,None,0,,,,,,,,,,,,,,,,,,,,4,001,2026-04-28_09h17.26.978,untitled,,2025.1.1,60.03546895955558,2026-04-28 09h17.34.134060 +0200,
B,7.wav,0,0,0,49,49,0,,,,,bloc_b.xlsx,None,1,,,,,,,,,,,,0,0,0,0,0,1,1,2,0,49,49,49,276.17896160000237,,,,,,,,,,,,,,,,,,,,,,,,,,,,,,,,,,,,,276.16412190001574,276.17896160000237,276.6621604000102,278.1610381999926,None,1,,,,,,,,,,,,,,,,,,,,4,001,2026-04-28_09h17.26.978,untitled,,2025.1.1,60.03546895955558,2026-04-28 09h17.34.134060 +0200,
,,,,,1,1,0,,,,,bloc_b.xlsx,,,,,,,,,,,,,,0,0,0,0,0,1,1,2,,,,,,,,,,,,,,,,,,,,,,,,,,,,,,,,,,,,,,,,,,,,,,,,,,,,,,,,,,,,,,,,,,,4,001,2026-04-28_09h17.26.978,untitled,,2025.1.1,60.03546895955558,2026-04-28 09h17.34.134060 +0200,
Z,6.wav,0,0,0,0,0,0,,,,,bloc_c.xlsx,None,1,,,,,,,,,,,,0,0,0,0,0,2,2,1,0,0,0,0,278.18207519999123,,,,,,,,,,,,,,,,,,,,,,,,,,,,,,,,,,,,,278.18090080001275,278.18207519999123,278.66026840000995,280.1757980000111,None,1,,,280.1756970999995,,,,,,,,,,,,,,,,,4,001,2026-04-28_09h17.26.978,untitled,,2025.1.1,60.03546895955558,2026-04-28 09h17.34.134060 +0200,
M,7.wav,0,0,0,1,1,0,,,,,bloc_c.xlsx,None,1,,,,,,,,,,,,0,0,0,0,0,2,2,1,0,1,1,1,280.1923467000015,,,,,,,,,,,,,,,,,,,,,,,,,,,,,,,,,,,,,280.17730919999303,280.1923467000015,280.67554309999105,282.1743383000139,None,1,,,,,,,,,,,,,,,,,,,,4,001,2026-04-28_09h17.26.978,untitled,,2025.1.1,60.03546895955558,2026-04-28 09h17.34.134060 +0200,
Z,1.wav,1,0,0,2,2,0,,,,,bloc_c.xlsx,None,0,,,,,,,,,,,,0,0,0,0,0,2,2,1,0,2,2,2,282.19077069999184,,,,,,,,,,,,,,,,,,,,,,,,,,,,,,,,,,,,,282.1758103000175,282.19077069999184,282.6736944000004,284.17249659998924,None,0,,,,,,,,,,,,,,,,,,,,4,001,2026-04-28_09h17.26.978,untitled,,2025.1.1,60.03546895955558,2026-04-28 09h17.34.134060 +0200,
E,8.wav,0,0,0,3,3,0,,,,,bloc_c.xlsx,None,1,,,,,,,,,,,,0,0,0,0,0,2,2,1,0,3,3,3,284.1891426999937,,,,,,,,,,,,,,,,,,,,,,,,,,,,,,,,,,,,,284.1739815000037,284.1891426999937,284.67207070000586,286.1708373000147,None,1,,,,,,,,,,,,,,,,,,,,4,001,2026-04-28_09h17.26.978,untitled,,2025.1.1,60.03546895955558,2026-04-28 09h17.34.134060 +0200,
R,3.wav,0,0,0,4,4,0,,,,,bloc_c.xlsx,None,1,,,,,,,,,,,,0,0,0,0,0,2,2,1,0,4,4,4,286.1874244000064,,,,,,,,,,,,,,,,,,,,,,,,,,,,,,,,,,,,,286.1724334000028,286.1874244000064,286.6704725000018,288.16929849999724,None,1,,,,,,,,,,,,,,,,,,,,4,001,2026-04-28_09h17.26.978,untitled,,2025.1.1,60.03546895955558,2026-04-28 09h17.34.134060 +0200,
J,8.wav,0,1,0,5,5,0,,,,,bloc_c.xlsx,None,1,,,,,,,,,,,,0,0,0,0,0,2,2,1,0,5,5,5,288.1857403999893,,,,,,,,,,,,,,,,,,,,,,,,,,,,,,,,,,,,,288.1708241000015,288.1857403999893,288.66885240000556,290.16769000000204,None,1,,,,,,,,,,,,,,,,,,,,4,001,2026-04-28_09h17.26.978,untitled,,2025.1.1,60.03546895955558,2026-04-28 09h17.34.134060 +0200,
R,5.wav,1,0,0,6,6,0,,,,,bloc_c.xlsx,None,0,,,,,,,,,,,,0,0,0,0,0,2,2,1,0,6,6,6,290.1841272000165,,,,,,,,,,,,,,,,,,,,,,,,,,,,,,,,,,,,,290.16907669999637,290.1841272000165,290.66709639999317,292.1659348999965,None,0,,,,,,,,,,,,,,,,,,,,4,001,2026-04-28_09h17.26.978,untitled,,2025.1.1,60.03546895955558,2026-04-28 09h17.34.134060 +0200,
Q,2.wav,0,0,0,7,7,0,,,,,bloc_c.xlsx,None,1,,,,,,,,,,,,0,0,0,0,0,2,2,1,0,7,7,7,292.1825495999947,,,,,,,,,,,,,,,,,,,,,,,,,,,,,,,,,,,,,292.1672389000014,292.1825495999947,292.6654420999985,294.1644617000129,None,1,,,,,,,,,,,,,,,,,,,,4,001,2026-04-28_09h17.26.978,untitled,,2025.1.1,60.03546895955558,2026-04-28 09h17.34.134060 +0200,
H,6.wav,0,0,0,8,8,0,,,,,bloc_c.xlsx,None,1,,,,,,,,,,,,0,0,0,0,0,2,2,1,0,8,8,8,294.1806782000058,,,,,,,,,,,,,,,,,,,,,,,,,,,,,,,,,,,,,294.1666641999909,294.1806782000058,294.6637688000046,296.16273770001135,None,1,,,,,,,,,,,,,,,,,,,,4,001,2026-04-28_09h17.26.978,untitled,,2025.1.1,60.03546895955558,2026-04-28 09h17.34.134060 +0200,
U,2.wav,0,1,0,9,9,0,,,,,bloc_c.xlsx,None,1,,,,,,,,,,,,0,0,0,0,0,2,2,1,0,9,9,9,296.17903440000373,,,,,,,,,,,,,,,,,,,,,,,,,,,,,,,,,,,,,296.16429680000874,296.17903440000373,296.66229320000275,298.16138269999647,None,1,,,,,,,,,,,,,,,,,,,,4,001,2026-04-28_09h17.26.978,untitled,,2025.1.1,60.03546895955558,2026-04-28 09h17.34.134060 +0200,
H,3.wav,1,0,0,10,10,0,,,,,bloc_c.xlsx,space,1,1.5887622000009287,0.11312219998217188,,,,,,,,,,0,0,0,0,0,2,2,1,0,10,10,10,298.17754979999154,,,,,,,,,,,,,,,,,,,,,,,,,,,,,,,,,,,,,298.1628686999902,298.17754979999154,298.66058220001287,300.1760883000097,space,1,1.5887622000009287,0.11312219998217188,300.17594439999084,,,,,,,,,,,,,,,,,4,001,2026-04-28_09h17.26.978,untitled,,2025.1.1,60.03546895955558,2026-04-28 09h17.34.134060 +0200,
Z,6.wav,0,0,0,11,11,0,,,,,bloc_c.xlsx,None,1,,,,,,,,,,,,0,0,0,0,0,2,2,1,0,11,11,11,300.19262079999316,,,,,,,,,,,,,,,,,,,,,,,,,,,,,,,,,,,,,300.17751720000524,300.19262079999316,300.6589318999904,302.1744411000109,None,1,,,302.17431729999953,,,,,,,,,,,,,,,,,4,001,2026-04-28_09h17.26.978,untitled,,2025.1.1,60.03546895955558,2026-04-28 09h17.34.134060 +0200,
Q,2.wav,0,0,0,12,12,0,,,,,bloc_c.xlsx,None,1,,,,,,,,,,,,0,0,0,0,0,2,2,1,0,12,12,12,302.19093139999313,,,,,,,,,,,,,,,,,,,,,,,,,,,,,,,,,,,,,302.17571850001696,302.19093139999313,302.67380079999566,304.1727985999896,None,1,,,,,,,,,,,,,,,,,,,,4,001,2026-04-28_09h17.26.978,untitled,,2025.1.1,60.03546895955558,2026-04-28 09h17.34.134060 +0200,
Z,1.wav,1,0,0,13,13,0,,,,,bloc_c.xlsx,None,0,,,,,,,,,,,,0,0,0,0,0,2,2,1,0,13,13,13,304.18931539999903,,,,,,,,,,,,,,,,,,,,,,,,,,,,,,,,,,,,,304.1742705999932,304.18931539999903,304.6722863999894,306.1711931999889,None,0,,,,,,,,,,,,,,,,,,,,4,001,2026-04-28_09h17.26.978,untitled,,2025.1.1,60.03546895955558,2026-04-28 09h17.34.134060 +0200,
N,2.wav,0,1,0,14,14,0,,,,,bloc_c.xlsx,None,1,,,,,,,,,,,,0,0,0,0,0,2,2,1,0,14,14,14,306.18783129999065,,,,,,,,,,,,,,,,,,,,,,,,,,,,,,,,,,,,,306.17279489999055,306.18783129999065,306.6708004999964,308.169418400008,None,1,,,,,,,,,,,,,,,,,,,,4,001,2026-04-28_09h17.26.978,untitled,,2025.1.1,60.03546895955558,2026-04-28 09h17.34.134060 +0200,
U,4.wav,0,0,0,15,15,0,,,,,bloc_c.xlsx,space,0,1.4601670999836642,0.12790220000897534,,,,,,,,,,0,0,0,0,0,2,2,1,0,15,15,15,308.18603959999746,,,,,,,,,,,,,,,,,,,,,,,,,,,,,,,,,,,,,308.1709575999994,308.18603959999746,308.6688715000055,310.1677220000129,space,0,1.4601670999836642,0.12790220000897534,,,,,,,,,,,,,,,,,,4,001,2026-04-28_09h17.26.978,untitled,,2025.1.1,60.03546895955558,2026-04-28 09h17.34.134060 +0200,
G,1.wav,0,0,0,16,16,0,,,,,bloc_c.xlsx,None,1,,,,,,,,,,,,0,0,0,0,0,2,2,1,0,16,16,16,310.18452690000413,,,,,,,,,,,,,,,,,,,,,,,,,,,,,,,,,,,,,310.16918130000704,310.18452690000413,310.667191799992,312.16616120000253,None,1,,,,,,,,,,,,,,,,,,,,4,001,2026-04-28_09h17.26.978,untitled,,2025.1.1,60.03546895955558,2026-04-28 09h17.34.134060 +0200,
P,5.wav,0,0,0,17,17,0,,,,,bloc_c.xlsx,None,1,,,,,,,,,,,,0,0,0,0,0,2,2,1,0,17,17,17,312.1828264000069,,,,,,,,,,,,,,,,,,,,,,,,,,,,,,,,,,,,,312.1676737999951,312.1828264000069,312.6657017999969,314.16463390001445,None,1,,,,,,,,,,,,,,,,,,,,4,001,2026-04-28_09h17.26.978,untitled,,2025.1.1,60.03546895955558,2026-04-28 09h17.34.134060 +0200,
G,1.wav,1,1,1,18,18,0,,,,,bloc_c.xlsx,None,0,,,,,,,,,,,,0,0,0,0,0,2,2,1,0,18,18,18,314.18114679999417,,,,,,,,,,,,,,,,,,,,,,,,,,,,,,,,,,,,,314.16634049999993,314.18114679999417,314.66395889999694,316.1628806999943,None,0,,,,,,,,,,,,,,,,,,,,4,001,2026-04-28_09h17.26.978,untitled,,2025.1.1,60.03546895955558,2026-04-28 09h17.34.134060 +0200,
C,2.wav,0,0,0,19,19,0,,,,,bloc_c.xlsx,None,1,,,,,,,,,,,,0,0,0,0,0,2,2,1,0,19,19,19,316.1793442000053,,,,,,,,,,,,,,,,,,,,,,,,,,,,,,,,,,,,,316.1649408999947,316.1793442000053,316.6624343000003,318.1612364999892,None,1,,,,,,,,,,,,,,,,,,,,4,001,2026-04-28_09h17.26.978,untitled,,2025.1.1,60.03546895955558,2026-04-28 09h17.34.134060 +0200,
T,3.wav,0,0,0,20,20,0,,,,,bloc_c.xlsx,None,1,,,,,,,,,,,,0,0,0,0,0,2,2,1,0,20,20,20,318.1778714999964,,,,,,,,,,,,,,,,,,,,,,,,,,,,,,,,,,,,,318.16281790001085,318.1778714999964,318.6608307000133,320.176303300017,None,1,,,320.17619379999815,,,,,,,,,,,,,,,,,4,001,2026-04-28_09h17.26.978,untitled,,2025.1.1,60.03546895955558,2026-04-28 09h17.34.134060 +0200,
B,2.wav,0,1,0,21,21,0,,,,,bloc_c.xlsx,None,1,,,,,,,,,,,,0,0,0,0,0,2,2,1,0,21,21,21,320.19279450000613,,,,,,,,,,,,,,,,,,,,,,,,,,,,,,,,,,,,,320.1779433999909,320.19279450000613,320.6592268999957,322.17449730000226,None,1,,,322.17439850000665,,,,,,,,,,,,,,,,,4,001,2026-04-28_09h17.26.978,untitled,,2025.1.1,60.03546895955558,2026-04-28 09h17.34.134060 +0200,
L,4.wav,0,0,0,22,22,0,,,,,bloc_c.xlsx,None,1,,,,,,,,,,,,0,0,0,0,0,2,2,1,0,22,22,22,322.19123490000493,,,,,,,,,,,,,,,,,,,,,,,,,,,,,,,,,,,,,322.1760586000164,322.19123490000493,322.67412040001363,324.17294499999844,None,1,,,,,,,,,,,,,,,,,,,,4,001,2026-04-28_09h17.26.978,untitled,,2025.1.1,60.03546895955558,2026-04-28 09h17.34.134060 +0200,
F,3.wav,0,0,0,23,23,0,,,,,bloc_c.xlsx,None,1,,,,,,,,,,,,0,0,0,0,0,2,2,1,0,23,23,23,324.1894658000092,,,,,,,,,,,,,,,,,,,,,,,,,,,,,,,,,,,,,324.1744988000137,324.1894658000092,324.67252140000346,326.17151439999,None,1,,,,,,,,,,,,,,,,,,,,4,001,2026-04-28_09h17.26.978,untitled,,2025.1.1,60.03546895955558,2026-04-28 09h17.34.134060 +0200,
T,4.wav,0,1,0,24,24,0,,,,,bloc_c.xlsx,None,1,,,,,,,,,,,,0,0,0,0,0,2,2,1,0,24,24,24,326.1878931999963,,,,,,,,,,,,,,,,,,,,,,,,,,,,,,,,,,,,,326.17317829999956,326.1878931999963,326.6709638000175,328.16973910000524,None,1,,,,,,,,,,,,,,,,,,,,4,001,2026-04-28_09h17.26.978,untitled,,2025.1.1,60.03546895955558,2026-04-28 09h17.34.134060 +0200,
F,6.wav,1,0,0,25,25,0,,,,,bloc_c.xlsx,space,1,1.3180050000082701,0.13242939999327064,,,,,,,,,,0,0,0,0,0,2,2,1,0,25,25,25,328.1862037999963,,,,,,,,,,,,,,,,,,,,,,,,,,,,,,,,,,,,,328.17122779999045,328.1862037999963,328.6692564999976,330.1680264000024,space,1,1.3180050000082701,0.13242939999327064,,,,,,,,,,,,,,,,,,4,001,2026-04-28_09h17.26.978,untitled,,2025.1.1,60.03546895955558,2026-04-28 09h17.34.134060 +0200,
D,5.wav,0,0,0,26,26,0,,,,,bloc_c.xlsx,None,1,,,,,,,,,,,,0,0,0,0,0,2,2,1,0,26,26,26,330.18462210000143,,,,,,,,,,,,,,,,,,,,,,,,,,,,,,,,,,,,,330.1698285000166,330.18462210000143,330.6677572999906,332.1663927999907,None,1,,,,,,,,,,,,,,,,,,,,4,001,2026-04-28_09h17.26.978,untitled,,2025.1.1,60.03546895955558,2026-04-28 09h17.34.134060 +0200,
G,6.wav,0,1,0,27,27,0,,,,,bloc_c.xlsx,None,1,,,,,,,,,,,,0,0,0,0,0,2,2,1,0,27,27,27,332.18297660001554,,,,,,,,,,,,,,,,,,,,,,,,,,,,,,,,,,,,,332.16804520000005,332.18297660001554,332.6658443000051,334.1647869000153,None,1,,,,,,,,,,,,,,,,,,,,4,001,2026-04-28_09h17.26.978,untitled,,2025.1.1,60.03546895955558,2026-04-28 09h17.34.134060 +0200,
E,2.wav,0,0,0,28,28,0,,,,,bloc_c.xlsx,None,1,,,,,,,,,,,,0,0,0,0,0,2,2,1,0,28,28,28,334.1813785000122,,,,,,,,,,,,,,,,,,,,,,,,,,,,,,,,,,,,,334.16626850000466,334.1813785000122,334.6643551000161,336.1632121000148,None,1,,,,,,,,,,,,,,,,,,,,4,001,2026-04-28_09h17.26.978,untitled,,2025.1.1,60.03546895955558,2026-04-28 09h17.34.134060 +0200,
G,8.wav,1,0,0,29,29,0,,,,,bloc_c.xlsx,None,0,,,,,,,,,,,,0,0,0,0,0,2,2,1,0,29,29,29,336.1798225000093,,,,,,,,,,,,,,,,,,,,,,,,,,,,,,,,,,,,,336.16522220001207,336.1798225000093,336.66263989999425,338.16150330001255,None,0,,,,,,,,,,,,,,,,,,,,4,001,2026-04-28_09h17.26.978,untitled,,2025.1.1,60.03546895955558,2026-04-28 09h17.34.134060 +0200,
S,5.wav,0,0,0,30,30,0,,,,,bloc_c.xlsx,None,1,,,,,,,,,,,,0,0,0,0,0,2,2,1,0,30,30,30,338.17790480001713,,,,,,,,,,,,,,,,,,,,,,,,,,,,,,,,,,,,,338.16306029999396,338.17790480001713,338.6608864000009,340.1598590000067,None,1,,,,,,,,,,,,,,,,,,,,4,001,2026-04-28_09h17.26.978,untitled,,2025.1.1,60.03546895955558,2026-04-28 09h17.34.134060 +0200,
N,1.wav,0,0,0,31,31,0,,,,,bloc_c.xlsx,None,1,,,,,,,,,,,,0,0,0,0,0,2,2,1,0,31,31,31,340.17637960001593,,,,,,,,,,,,,,,,,,,,,,,,,,,,,,,,,,,,,340.16162050000275,340.17637960001593,340.6594405999931,342.17491590001737,None,1,,,342.1747156000056,,,,,,,,,,,,,,,,,4,001,2026-04-28_09h17.26.978,untitled,,2025.1.1,60.03546895955558,2026-04-28 09h17.34.134060 +0200,
V,2.wav,0,0,0,32,32,0,,,,,bloc_c.xlsx,None,1,,,,,,,,,,,,0,0,0,0,0,2,2,1,0,32,32,32,342.19120770000154,,,,,,,,,,,,,,,,,,,,,,,,,,,,,,,,,,,,,342.17639740000595,342.19120770000154,342.6744696999958,344.1731984000071,None,1,,,,,,,,,,,,,,,,,,,,4,001,2026-04-28_09h17.26.978,untitled,,2025.1.1,60.03546895955558,2026-04-28 09h17.34.134060 +0200,
X,1.wav,0,1,0,33,33,0,,,,,bloc_c.xlsx,None,1,,,,,,,,,,,,0,0,0,0,0,2,2,1,0,33,33,33,344.18975290001254,,,,,,,,,,,,,,,,,,,,,,,,,,,,,,,,,,,,,344.17460240001674,344.18975290001254,344.6726946000126,346.1715729999996,None,1,,,,,,,,,,,,,,,,,,,,4,001,2026-04-28_09h17.26.978,untitled,,2025.1.1,60.03546895955558,2026-04-28 09h17.34.134060 +0200,
A,4.wav,0,0,0,34,34,0,,,,,bloc_c.xlsx,None,1,,,,,,,,,,,,0,0,0,0,0,2,2,1,0,34,34,34,346.18809599999804,,,,,,,,,,,,,,,,,,,,,,,,,,,,,,,,,,,,,346.17304670001613,346.18809599999804,346.67113800000516,348.1699138999975,None,1,,,,,,,,,,,,,,,,,,,,4,001,2026-04-28_09h17.26.978,untitled,,2025.1.1,60.03546895955558,2026-04-28 09h17.34.134060 +0200,
R,2.wav,0,0,0,35,35,0,,,,,bloc_c.xlsx,None,1,,,,,,,,,,,,0,0,0,0,0,2,2,1,0,35,35,35,348.18641990001197,,,,,,,,,,,,,,,,,,,,,,,,,,,,,,,,,,,,,348.17179729999043,348.18641990001197,348.6694750000024,350.16818209999474,None,1,,,,,,,,,,,,,,,,,,,,4,001,2026-04-28_09h17.26.978,untitled,,2025.1.1,60.03546895955558,2026-04-28 09h17.34.134060 +0200,
A,6.wav,1,0,0,36,36,0,,,,,bloc_c.xlsx,None,0,,,,,,,,,,,,0,0,0,0,0,2,2,1,0,36,36,36,350.184651699994,,,,,,,,,,,,,,,,,,,,,,,,,,,,,,,,,,,,,350.1697306999995,350.184651699994,350.6678489999904,352.1665883999958,None,0,,,,,,,,,,,,,,,,,,,,4,001,2026-04-28_09h17.26.978,untitled,,2025.1.1,60.03546895955558,2026-04-28 09h17.34.134060 +0200,
U,8.wav,0,0,0,37,37,0,,,,,bloc_c.xlsx,None,1,,,,,,,,,,,,0,0,0,0,0,2,2,1,0,37,37,37,352.18305650001275,,,,,,,,,,,,,,,,,,,,,,,,,,,,,,,,,,,,,352.1679191000003,352.18305650001275,352.6662451000011,354.16492650000146,None,1,,,,,,,,,,,,,,,,,,,,4,001,2026-04-28_09h17.26.978,untitled,,2025.1.1,60.03546895955558,2026-04-28 09h17.34.134060 +0200,
N,1.wav,0,0,0,38,38,0,,,,,bloc_c.xlsx,None,1,,,,,,,,,,,,0,0,0,0,0,2,2,1,0,38,38,38,354.18153130001156,,,,,,,,,,,,,,,,,,,,,,,,,,,,,,,,,,,,,354.16661260000546,354.18153130001156,354.66442200000165,356.1633556000015,None,1,,,356.1632586999913,,,,,,,,,,,,,,,,,4,001,2026-04-28_09h17.26.978,untitled,,2025.1.1,60.03546895955558,2026-04-28 09h17.34.134060 +0200,
K,3.wav,0,0,0,39,39,0,,,,,bloc_c.xlsx,None,1,,,,,,,,,,,,0,0,0,0,0,2,2,1,0,39,39,39,356.179839599994,,,,,,,,,,,,,,,,,,,,,,,,,,,,,,,,,,,,,356.16512829999556,356.179839599994,356.6629077999969,358.1617103999888,None,1,,,,,,,,,,,,,,,,,,,,4,001,2026-04-28_09h17.26.978,untitled,,2025.1.1,60.03546895955558,2026-04-28 09h17.34.134060 +0200,
N,1.wav,1,1,1,40,40,0,,,,,bloc_c.xlsx,None,0,,,,,,,,,,,,0,0,0,0,0,2,2,1,0,40,40,40,358.178296099999,,,,,,,,,,,,,,,,,,,,,,,,,,,,,,,,,,,,,358.16303160000825,358.178296099999,358.6612984999956,360.16003709999495,None,0,,,,,,,,,,,,,,,,,,,,4,001,2026-04-28_09h17.26.978,untitled,,2025.1.1,60.03546895955558,2026-04-28 09h17.34.134060 +0200,
P,8.wav,0,0,0,41,41,0,,,,,bloc_c.xlsx,None,1,,,,,,,,,,,,0,0,0,0,0,2,2,1,0,41,41,41,360.176569800009,,,,,,,,,,,,,,,,,,,,,,,,,,,,,,,,,,,,,360.16150250000646,360.176569800009,360.65966400000616,362.17496800000663,None,1,,,362.17484039999545,,,,,,,,,,,,,,,,,4,001,2026-04-28_09h17.26.978,untitled,,2025.1.1,60.03546895955558,2026-04-28 09h17.34.134060 +0200,
G,2.wav,0,0,0,42,42,0,,,,,bloc_c.xlsx,None,1,,,,,,,,,,,,0,0,0,0,0,2,2,1,0,42,42,42,362.1915633000026,,,,,,,,,,,,,,,,,,,,,,,,,,,,,,,,,,,,,362.17669359999127,362.1915633000026,362.67446129999007,364.1733784000098,None,1,,,,,,,,,,,,,,,,,,,,4,001,2026-04-28_09h17.26.978,untitled,,2025.1.1,60.03546895955558,2026-04-28 09h17.34.134060 +0200,
Q,4.wav,0,0,0,43,43,0,,,,,bloc_c.xlsx,None,1,,,,,,,,,,,,0,0,0,0,0,2,2,1,0,43,43,43,364.18998110000393,,,,,,,,,,,,,,,,,,,,,,,,,,,,,,,,,,,,,364.17503469999065,364.18998110000393,364.6728662000096,366.1717365999939,None,1,,,,,,,,,,,,,,,,,,,,4,001,2026-04-28_09h17.26.978,untitled,,2025.1.1,60.03546895955558,2026-04-28 09h17.34.134060 +0200,
B,6.wav,0,0,0,44,44,0,,,,,bloc_c.xlsx,None,1,,,,,,,,,,,,0,0,0,0,0,2,2,1,0,44,44,44,366.1883846000128,,,,,,,,,,,,,,,,,,,,,,,,,,,,,,,,,,,,,366.1740876999975,366.1883846000128,366.6712697999901,368.1700664999953,None,1,,,,,,,,,,,,,,,,,,,,4,001,2026-04-28_09h17.26.978,untitled,,2025.1.1,60.03546895955558,2026-04-28 09h17.34.134060 +0200,
Q,2.wav,1,0,0,45,45,0,,,,,bloc_c.xlsx,space,1,1.6214310999785084,0.12722750002285466,,,,,,,,,,0,0,0,0,0,2,2,1,0,45,45,45,368.1865494000085,,,,,,,,,,,,,,,,,,,,,,,,,,,,,,,,,,,,,368.1715191999974,368.1865494000085,368.6695541999943,370.1685674999899,space,1,1.6214310999785084,0.12722750002285466,,,,,,,,,,,,,,,,,,4,001,2026-04-28_09h17.26.978,untitled,,2025.1.1,60.03546895955558,2026-04-28 09h17.34.134060 +0200,
E,3.wav,0,0,0,46,46,0,,,,,bloc_c.xlsx,None,1,,,,,,,,,,,,0,0,0,0,0,2,2,1,0,46,46,46,370.18502209999133,,,,,,,,,,,,,,,,,,,,,,,,,,,,,,,,,,,,,370.1700686000113,370.18502209999133,370.6679417999985,372.16680949999136,None,1,,,,,,,,,,,,,,,,,,,,4,001,2026-04-28_09h17.26.978,untitled,,2025.1.1,60.03546895955558,2026-04-28 09h17.34.134060 +0200,
U,2.wav,0,1,0,47,47,0,,,,,bloc_c.xlsx,None,1,,,,,,,,,,,,0,0,0,0,0,2,2,1,0,47,47,47,372.1834773000155,,,,,,,,,,,,,,,,,,,,,,,,,,,,,,,,,,,,,372.16815330000827,372.1834773000155,372.66633189999266,374.1651233000157,None,1,,,,,,,,,,,,,,,,,,,,4,001,2026-04-28_09h17.26.978,untitled,,2025.1.1,60.03546895955558,2026-04-28 09h17.34.134060 +0200,
D,4.wav,0,0,0,48,48,0,,,,,bloc_c.xlsx,None,1,,,,,,,,,,,,0,0,0,0,0,2,2,1,0,48,48,48,374.18171910001547,,,,,,,,,,,,,,,,,,,,,,,,,,,,,,,,,,,,,374.1669475999952,374.18171910001547,374.66471050001564,376.1634604000137,None,1,,,,,,,,,,,,,,,,,,,,4,001,2026-04-28_09h17.26.978,untitled,,2025.1.1,60.03546895955558,2026-04-28 09h17.34.134060 +0200,
W,6.wav,0,0,0,49,49,0,,,,,bloc_c.xlsx,None,1,,,,,,,,,,,,0,0,0,0,0,2,2,1,0,49,49,49,376.1801034999953,,,,,,,,,,,,,,,,,,,,,,,,,,,,,,,,,,,,,376.1654647999967,376.1801034999953,376.6629336999904,378.1618959000043,None,1,,,,,,,,,,,,,,,,,,,,4,001,2026-04-28_09h17.26.978,untitled,,2025.1.1,60.03546895955558,2026-04-28 09h17.34.134060 +0200,
,,,,,2,2,0,,,,,bloc_c.xlsx,,,,,,,,,,,,,,0,0,0,0,0,2,2,1,,,,,,,,,,,,,,,,,,,,,,,,,,,,,,,,,,,,,,,,,,,,,,,,,,,,,,,,,,,,,,,,,,,4,001,2026-04-28_09h17.26.978,untitled,,2025.1.1,60.03546895955558,2026-04-28 09h17.34.134060 +0200,
,,,,,0,0,0,,,,,,,,,,3.0,13.493043099995703,1,[15.733016299986048],[15.733021099993493],,,,,0,0,0,0,,,,,,,,,,,,,,,,,,,,,,,,,,,,,,,,,,,,,,,,,,,,,,,,,,,,,,,378.1785935999942,378.2237366999907,378.2237366999907,378.2237366999907,378.2237366999907,378.2237366999907,393.9574043000175,3.0,13.493043099995703,1,[15.733016299986048],[15.733021099993493],,,,,4,001,2026-04-28_09h17.26.978,untitled,,2025.1.1,60.03546895955558,2026-04-28 09h17.34.134060 +0200,
Z,6.wav,0,0,0,0,0,0,,,,,bloc_c.xlsx,None,1,,,,,,,,,,,,1,0,1,0,0,0,0,1,0,0,0,0,393.97242609999375,,,,,,,,,,,,,,,,,,,,,,,,,,,,,,,,,,,,,393.9711532999936,393.97242609999375,394.46514970000135,395.96397199999774,None,1,,,,,,,,,,,,,,,,,,,,4,001,2026-04-28_09h17.26.978,untitled,,2025.1.1,60.03546895955558,2026-04-28 09h17.34.134060 +0200,
M,7.wav,0,0,0,1,1,0,,,,,bloc_c.xlsx,None,1,,,,,,,,,,,,1,0,1,0,0,0,0,1,0,1,1,1,395.980578000017,,,,,,,,,,,,,,,,,,,,,,,,,,,,,,,,,,,,,395.9661627000023,395.980578000017,396.46357089999947,397.9623025000037,None,1,,,,,,,,,,,,,,,,,,,,4,001,2026-04-28_09h17.26.978,untitled,,2025.1.1,60.03546895955558,2026-04-28 09h17.34.134060 +0200,
Z,1.wav,1,0,0,2,2,0,,,,,bloc_c.xlsx,None,0,,,,,,,,,,,,1,0,1,0,0,0,0,1,0,2,2,2,397.97889220001525,,,,,,,,,,,,,,,,,,,,,,,,,,,,,,,,,,,,,397.96455669999705,397.97889220001525,398.46181500001694,399.9609277000127,None,0,,,,,,,,,,,,,,,,,,,,4,001,2026-04-28_09h17.26.978,untitled,,2025.1.1,60.03546895955558,2026-04-28 09h17.34.134060 +0200,
E,8.wav,0,0,0,3,3,0,,,,,bloc_c.xlsx,None,1,,,,,,,,,,,,1,0,1,0,0,0,0,1,0,3,3,3,399.9773131000111,,,,,,,,,,,,,,,,,,,,,,,,,,,,,,,,,,,,,399.96575199998915,399.9773131000111,400.4601297999907,401.9590550000139,None,1,,,,,,,,,,,,,,,,,,,,4,001,2026-04-28_09h17.26.978,untitled,,2025.1.1,60.03546895955558,2026-04-28 09h17.34.134060 +0200,
R,3.wav,0,0,0,4,4,0,,,,,bloc_c.xlsx,None,1,,,,,,,,,,,,1,0,1,0,0,0,0,1,0,4,4,4,401.9756131999893,,,,,,,,,,,,,,,,,,,,,,,,,,,,,,,,,,,,,401.9612316999992,401.9756131999893,402.45861349999905,403.9742555000121,None,1,,,403.9741372000135,,,,,,,,,,,,,,,,,4,001,2026-04-28_09h17.26.978,untitled,,2025.1.1,60.03546895955558,2026-04-28 09h17.34.134060 +0200,
J,8.wav,0,1,0,5,5,0,,,,,bloc_c.xlsx,None,1,,,,,,,,,,,,1,0,1,0,0,0,0,1,0,5,5,5,403.99048830001266,,,,,,,,,,,,,,,,,,,,,,,,,,,,,,,,,,,,,403.97580350001226,403.99048830001266,404.45690300001297,405.97237180001684,None,1,,,405.97226390001015,,,,,,,,,,,,,,,,,4,001,2026-04-28_09h17.26.978,untitled,,2025.1.1,60.03546895955558,2026-04-28 09h17.34.134060 +0200,
R,5.wav,1,0,0,6,6,0,,,,,bloc_c.xlsx,None,0,,,,,,,,,,,,1,0,1,0,0,0,0,1,0,6,6,6,405.98880869999994,,,,,,,,,,,,,,,,,,,,,,,,,,,,,,,,,,,,,405.97414040000876,405.98880869999994,406.4718307000003,407.97091180001735,None,0,,,,,,,,,,,,,,,,,,,,4,001,2026-04-28_09h17.26.978,untitled,,2025.1.1,60.03546895955558,2026-04-28 09h17.34.134060 +0200,
Q,2.wav,0,0,0,7,7,0,,,,,bloc_c.xlsx,None,1,,,,,,,,,,,,1,0,1,0,0,0,0,1,0,7,7,7,407.9871517000138,,,,,,,,,,,,,,,,,,,,,,,,,,,,,,,,,,,,,407.9729723999917,407.9871517000138,408.4702282999933,409.969408200006,None,1,,,,,,,,,,,,,,,,,,,,4,001,2026-04-28_09h17.26.978,untitled,,2025.1.1,60.03546895955558,2026-04-28 09h17.34.134060 +0200,
H,6.wav,0,0,0,8,8,0,,,,,bloc_c.xlsx,None,1,,,,,,,,,,,,1,0,1,0,0,0,0,1,0,8,8,8,409.9854961000092,,,,,,,,,,,,,,,,,,,,,,,,,,,,,,,,,,,,,409.971252599993,409.9854961000092,410.4684733999893,411.9676252999925,None,1,,,,,,,,,,,,,,,,,,,,4,001,2026-04-28_09h17.26.978,untitled,,2025.1.1,60.03546895955558,2026-04-28 09h17.34.134060 +0200,
U,2.wav,0,1,0,9,9,0,,,,,bloc_c.xlsx,None,1,,,,,,,,,,,,1,0,1,0,0,0,0,1,0,9,9,9,411.98395029999665,,,,,,,,,,,,,,,,,,,,,,,,,,,,,,,,,,,,,411.9695168999897,411.98395029999665,412.4669792999921,413.9659037000092,None,1,,,,,,,,,,,,,,,,,,,,4,001,2026-04-28_09h17.26.978,untitled,,2025.1.1,60.03546895955558,2026-04-28 09h17.34.134060 +0200,
H,3.wav,1,0,0,10,10,0,,,,,bloc_c.xlsx,None,0,,,,,,,,,,,,1,0,1,0,0,0,0,1,0,10,10,10,413.982245399995,,,,,,,,,,,,,,,,,,,,,,,,,,,,,,,,,,,,,413.96752890001517,413.982245399995,414.46527849999256,415.96423820001655,None,0,,,,,,,,,,,,,,,,,,,,4,001,2026-04-28_09h17.26.978,untitled,,2025.1.1,60.03546895955558,2026-04-28 09h17.34.134060 +0200,
Z,6.wav,0,0,0,11,11,0,,,,,bloc_c.xlsx,None,1,,,,,,,,,,,,1,0,1,0,0,0,0,1,0,11,11,11,415.9806392000173,,,,,,,,,,,,,,,,,,,,,,,,,,,,,,,,,,,,,415.9657244000118,415.9806392000173,416.4635775999923,417.96253839999554,None,1,,,,,,,,,,,,,,,,,,,,4,001,2026-04-28_09h17.26.978,untitled,,2025.1.1,60.03546895955558,2026-04-28 09h17.34.134060 +0200,
Q,2.wav,0,0,0,12,12,0,,,,,bloc_c.xlsx,space,0,1.9623728999868035,None,,,,,,,,,,1,0,1,0,0,0,0,1,0,12,12,12,417.9789782000007,,,,,,,,,,,,,,,,,,,,,,,,,,,,,,,,,,,,,417.9641392999911,417.9789782000007,418.46196839999175,419.9610107000044,space,0,1.9623728999868035,None,,,,,,,,,,,,,,,,,,4,001,2026-04-28_09h17.26.978,untitled,,2025.1.1,60.03546895955558,2026-04-28 09h17.34.134060 +0200,
Z,1.wav,1,0,0,13,13,0,,,,,bloc_c.xlsx,None,0,,,,,,,,,,,,1,0,1,0,0,0,0,1,0,13,13,13,419.9772465999995,,,,,,,,,,,,,,,,,,,,,,,,,,,,,,,,,,,,,419.9627298999985,419.9772465999995,420.4603560999967,421.9592970999947,None,0,,,,,,,,,,,,,,,,,,,,4,001,2026-04-28_09h17.26.978,untitled,,2025.1.1,60.03546895955558,2026-04-28 09h17.34.134060 +0200,
N,2.wav,0,1,0,14,14,0,,,,,bloc_c.xlsx,None,1,,,,,,,,,,,,1,0,1,0,0,0,0,1,0,14,14,14,421.97563349999837,,,,,,,,,,,,,,,,,,,,,,,,,,,,,,,,,,,,,421.9608332999924,421.97563349999837,422.458610200003,423.95777519998956,None,1,,,,,,,,,,,,,,,,,,,,4,001,2026-04-28_09h17.26.978,untitled,,2025.1.1,60.03546895955558,2026-04-28 09h17.34.134060 +0200,
U,4.wav,0,0,0,15,15,0,,,,,bloc_c.xlsx,None,1,,,,,,,,,,,,1,0,1,0,0,0,0,1,0,15,15,15,423.97410240001045,,,,,,,,,,,,,,,,,,,,,,,,,,,,,,,,,,,,,423.9592702999944,423.97410240001045,424.45703890000004,425.97271050000563,None,1,,,425.9724756999931,,,,,,,,,,,,,,,,,4,001,2026-04-28_09h17.26.978,untitled,,2025.1.1,60.03546895955558,2026-04-28 09h17.34.134060 +0200,
G,1.wav,0,0,0,16,16,0,,,,,bloc_c.xlsx,None,1,,,,,,,,,,,,1,0,1,0,0,0,0,1,0,16,16,16,425.98925109999254,,,,,,,,,,,,,,,,,,,,,,,,,,,,,,,,,,,,,425.9738867999986,425.98925109999254,426.47210139999515,427.9708185000054,None,1,,,,,,,,,,,,,,,,,,,,4,001,2026-04-28_09h17.26.978,untitled,,2025.1.1,60.03546895955558,2026-04-28 09h17.34.134060 +0200,
P,5.wav,0,0,0,17,17,0,,,,,bloc_c.xlsx,None,1,,,,,,,,,,,,1,0,1,0,0,0,0,1,0,17,17,17,427.9875131000008,,,,,,,,,,,,,,,,,,,,,,,,,,,,,,,,,,,,,427.9727802000125,427.9875131000008,428.4704284000036,429.969396600005,None,1,,,,,,,,,,,,,,,,,,,,4,001,2026-04-28_09h17.26.978,untitled,,2025.1.1,60.03546895955558,2026-04-28 09h17.34.134060 +0200,
G,1.wav,1,1,1,18,18,0,,,,,bloc_c.xlsx,None,0,,,,,,,,,,,,1,0,1,0,0,0,0,1,0,18,18,18,429.9859268,,,,,,,,,,,,,,,,,,,,,,,,,,,,,,,,,,,,,429.9707186000014,429.9859268,430.46873180000694,431.9677500000107,None,0,,,,,,,,,,,,,,,,,,,,4,001,2026-04-28_09h17.26.978,untitled,,2025.1.1,60.03546895955558,2026-04-28 09h17.34.134060 +0200,
C,2.wav,0,0,0,19,19,0,,,,,bloc_c.xlsx,None,1,,,,,,,,,,,,1,0,1,0,0,0,0,1,0,19,19,19,431.9842137999949,,,,,,,,,,,,,,,,,,,,,,,,,,,,,,,,,,,,,431.96932709999965,431.9842137999949,432.46705060001113,433.96598589999485,None,1,,,,,,,,,,,,,,,,,,,,4,001,2026-04-28_09h17.26.978,untitled,,2025.1.1,60.03546895955558,2026-04-28 09h17.34.134060 +0200,
T,3.wav,0,0,0,20,20,0,,,,,bloc_c.xlsx,None,1,,,,,,,,,,,,1,0,1,0,0,0,0,1,0,20,20,20,433.9826713000075,,,,,,,,,,,,,,,,,,,,,,,,,,,,,,,,,,,,,433.96747299999697,433.9826713000075,434.4654639000073,435.96428869999363,None,1,,,,,,,,,,,,,,,,,,,,4,001,2026-04-28_09h17.26.978,untitled,,2025.1.1,60.03546895955558,2026-04-28 09h17.34.134060 +0200,
B,2.wav,0,1,0,21,21,0,,,,,bloc_c.xlsx,None,1,,,,,,,,,,,,1,0,1,0,0,0,0,1,0,21,21,21,435.9808868000109,,,,,,,,,,,,,,,,,,,,,,,,,,,,,,,,,,,,,435.9658475999895,435.9808868000109,436.4636841000174,437.9626763999986,None,1,,,437.9625173000095,,,,,,,,,,,,,,,,,4,001,2026-04-28_09h17.26.978,untitled,,2025.1.1,60.03546895955558,2026-04-28 09h17.34.134060 +0200,
L,4.wav,0,0,0,22,22,0,,,,,bloc_c.xlsx,None,1,,,,,,,,,,,,1,0,1,0,0,0,0,1,0,22,22,22,437.9792606999981,,,,,,,,,,,,,,,,,,,,,,,,,,,,,,,,,,,,,437.96424390000175,437.9792606999981,438.46215340000344,439.96113400001195,None,1,,,,,,,,,,,,,,,,,,,,4,001,2026-04-28_09h17.26.978,untitled,,2025.1.1,60.03546895955558,2026-04-28 09h17.34.134060 +0200,
F,3.wav,0,0,0,23,23,0,,,,,bloc_c.xlsx,None,1,,,,,,,,,,,,1,0,1,0,0,0,0,1,0,23,23,23,439.9776825000008,,,,,,,,,,,,,,,,,,,,,,,,,,,,,,,,,,,,,439.96249880001415,439.9776825000008,440.460433500004,441.95954209999763,None,1,,,441.95939920001547,,,,,,,,,,,,,,,,,4,001,2026-04-28_09h17.26.978,untitled,,2025.1.1,60.03546895955558,2026-04-28 09h17.34.134060 +0200,
T,4.wav,0,1,0,24,24,0,,,,,bloc_c.xlsx,None,1,,,,,,,,,,,,1,0,1,0,0,0,0,1,0,24,24,24,441.97611690001213,,,,,,,,,,,,,,,,,,,,,,,,,,,,,,,,,,,,,441.9610512999934,441.97611690001213,442.4588488000154,443.9577958000009,None,1,,,,,,,,,,,,,,,,,,,,4,001,2026-04-28_09h17.26.978,untitled,,2025.1.1,60.03546895955558,2026-04-28 09h17.34.134060 +0200,
F,6.wav,1,0,0,25,25,0,,,,,bloc_c.xlsx,None,0,,,,,,,,,,,,1,0,1,0,0,0,0,1,0,25,25,25,443.9743262999982,,,,,,,,,,,,,,,,,,,,,,,,,,,,,,,,,,,,,443.9593015999999,443.9743262999982,444.4571885000041,445.9729714000132,None,0,,,445.97282039999845,,,,,,,,,,,,,,,,,4,001,2026-04-28_09h17.26.978,untitled,,2025.1.1,60.03546895955558,2026-04-28 09h17.34.134060 +0200,
D,5.wav,0,0,0,26,26,0,,,,,bloc_c.xlsx,space,0,0.7503286999999546,0.11603480001213029,,,,,,,,,,1,0,1,0,0,0,0,1,0,26,26,26,445.9894258000131,,,,,,,,,,,,,,,,,,,,,,,,,,,,,,,,,,,,,445.9748560000153,445.9894258000131,446.47229830001015,447.971275399992,space,0,0.7503286999999546,0.11603480001213029,,,,,,,,,,,,,,,,,,4,001,2026-04-28_09h17.26.978,untitled,,2025.1.1,60.03546895955558,2026-04-28 09h17.34.134060 +0200,
G,6.wav,0,1,0,27,27,0,,,,,bloc_c.xlsx,None,1,,,,,,,,,,,,1,0,1,0,0,0,0,1,0,27,27,27,447.9876947000157,,,,,,,,,,,,,,,,,,,,,,,,,,,,,,,,,,,,,447.97299660000135,447.9876947000157,448.4705971000076,449.96957079999265,None,1,,,,,,,,,,,,,,,,,,,,4,001,2026-04-28_09h17.26.978,untitled,,2025.1.1,60.03546895955558,2026-04-28 09h17.34.134060 +0200,
E,2.wav,0,0,0,28,28,0,,,,,bloc_c.xlsx,None,1,,,,,,,,,,,,1,0,1,0,0,0,0,1,0,28,28,28,449.986270399997,,,,,,,,,,,,,,,,,,,,,,,,,,,,,,,,,,,,,449.9718175000162,449.986270399997,450.46910590000334,451.967979500012,None,1,,,,,,,,,,,,,,,,,,,,4,001,2026-04-28_09h17.26.978,untitled,,2025.1.1,60.03546895955558,2026-04-28 09h17.34.134060 +0200,
G,8.wav,1,0,0,29,29,0,,,,,bloc_c.xlsx,None,0,,,,,,,,,,,,1,0,1,0,0,0,0,1,0,29,29,29,451.98434359999374,,,,,,,,,,,,,,,,,,,,,,,,,,,,,,,,,,,,,451.9700591000146,451.98434359999374,452.467498300015,453.9662726999959,None,0,,,,,,,,,,,,,,,,,,,,4,001,2026-04-28_09h17.26.978,untitled,,2025.1.1,60.03546895955558,2026-04-28 09h17.34.134060 +0200,
S,5.wav,0,0,0,30,30,0,,,,,bloc_c.xlsx,None,1,,,,,,,,,,,,1,0,1,0,0,0,0,1,0,30,30,30,453.9829830999952,,,,,,,,,,,,,,,,,,,,,,,,,,,,,,,,,,,,,453.9679787000059,453.9829830999952,454.4658003000077,455.9647314999893,None,1,,,,,,,,,,,,,,,,,,,,4,001,2026-04-28_09h17.26.978,untitled,,2025.1.1,60.03546895955558,2026-04-28 09h17.34.134060 +0200,
N,1.wav,0,0,0,31,31,0,,,,,bloc_c.xlsx,None,1,,,,,,,,,,,,1,0,1,0,0,0,0,1,0,31,31,31,455.9811173999915,,,,,,,,,,,,,,,,,,,,,,,,,,,,,,,,,,,,,455.96637730000657,455.9811173999915,456.4641599000024,457.96319579999545,None,1,,,,,,,,,,,,,,,,,,,,4,001,2026-04-28_09h17.26.978,untitled,,2025.1.1,60.03546895955558,2026-04-28 09h17.34.134060 +0200,
V,2.wav,0,0,0,32,32,0,,,,,bloc_c.xlsx,None,1,,,,,,,,,,,,1,0,1,0,0,0,0,1,0,32,32,32,457.9795515000005,,,,,,,,,,,,,,,,,,,,,,,,,,,,,,,,,,,,,457.965013500012,457.9795515000005,458.4624083999952,459.9613377999922,None,1,,,,,,,,,,,,,,,,,,,,4,001,2026-04-28_09h17.26.978,untitled,,2025.1.1,60.03546895955558,2026-04-28 09h17.34.134060 +0200,
X,1.wav,0,1,0,33,33,0,,,,,bloc_c.xlsx,None,1,,,,,,,,,,,,1,0,1,0,0,0,0,1,0,33,33,33,459.977927800006,,,,,,,,,,,,,,,,,,,,,,,,,,,,,,,,,,,,,459.96291150001343,459.977927800006,460.46070890000556,461.9597319000168,None,1,,,,,,,,,,,,,,,,,,,,4,001,2026-04-28_09h17.26.978,untitled,,2025.1.1,60.03546895955558,2026-04-28 09h17.34.134060 +0200,
A,4.wav,0,0,0,34,34,0,,,,,bloc_c.xlsx,None,1,,,,,,,,,,,,1,0,1,0,0,0,0,1,0,34,34,34,461.97618850000435,,,,,,,,,,,,,,,,,,,,,,,,,,,,,,,,,,,,,461.96120489999885,461.97618850000435,462.459142000007,463.95818869999493,None,1,,,,,,,,,,,,,,,,,,,,4,001,2026-04-28_09h17.26.978,untitled,,2025.1.1,60.03546895955558,2026-04-28 09h17.34.134060 +0200,
R,2.wav,0,0,0,35,35,0,,,,,bloc_c.xlsx,None,1,,,,,,,,,,,,1,0,1,0,0,0,0,1,0,35,35,35,463.97469199998886,,,,,,,,,,,,,,,,,,,,,,,,,,,,,,,,,,,,,463.95981010000105,463.97469199998886,464.4577480000153,465.9730952999962,None,1,,,465.9729714000132,,,,,,,,,,,,,,,,,4,001,2026-04-28_09h17.26.978,untitled,,2025.1.1,60.03546895955558,2026-04-28 09h17.34.134060 +0200,
A,6.wav,1,0,0,36,36,0,,,,,bloc_c.xlsx,None,0,,,,,,,,,,,,1,0,1,0,0,0,0,1,0,36,36,36,465.98950490000425,,,,,,,,,,,,,,,,,,,,,,,,,,,,,,,,,,,,,465.9746456000139,465.98950490000425,466.4725679999974,467.97146210001665,None,0,,,,,,,,,,,,,,,,,,,,4,001,2026-04-28_09h17.26.978,untitled,,2025.1.1,60.03546895955558,2026-04-28 09h17.34.134060 +0200,
U,8.wav,0,0,0,37,37,0,,,,,bloc_c.xlsx,None,1,,,,,,,,,,,,1,0,1,0,0,0,0,1,0,37,37,37,467.98787209999864,,,,,,,,,,,,,,,,,,,,,,,,,,,,,,,,,,,,,467.9732597999973,467.98787209999864,468.47073090000777,469.96965260000434,None,1,,,,,,,,,,,,,,,,,,,,4,001,2026-04-28_09h17.26.978,untitled,,2025.1.1,60.03546895955558,2026-04-28 09h17.34.134060 +0200,
N,1.wav,0,0,0,38,38,0,,,,,bloc_c.xlsx,None,1,,,,,,,,,,,,1,0,1,0,0,0,0,1,0,38,38,38,469.98621050000656,,,,,,,,,,,,,,,,,,,,,,,,,,,,,,,,,,,,,469.9715586999955,469.98621050000656,470.4693507000047,471.9681937000132,None,1,,,,,,,,,,,,,,,,,,,,4,001,2026-04-28_09h17.26.978,untitled,,2025.1.1,60.03546895955558,2026-04-28 09h17.34.134060 +0200,
K,3.wav,0,0,0,39,39,0,,,,,bloc_c.xlsx,None,1,,,,,,,,,,,,1,0,1,0,0,0,0,1,0,39,39,39,471.9844587999978,,,,,,,,,,,,,,,,,,,,,,,,,,,,,,,,,,,,,471.96979490001104,471.9844587999978,472.4675941999885,473.96648190001724,None,1,,,,,,,,,,,,,,,,,,,,4,001,2026-04-28_09h17.26.978,untitled,,2025.1.1,60.03546895955558,2026-04-28 09h17.34.134060 +0200,
N,1.wav,1,1,1,40,40,0,,,,,bloc_c.xlsx,None,0,,,,,,,,,,,,1,0,1,0,0,0,0,1,0,40,40,40,473.9829490999982,,,,,,,,,,,,,,,,,,,,,,,,,,,,,,,,,,,,,473.96818009999697,473.9829490999982,474.465895500005,475.96489360000123,None,0,,,,,,,,,,,,,,,,,,,,4,001,2026-04-28_09h17.26.978,untitled,,2025.1.1,60.03546895955558,2026-04-28 09h17.34.134060 +0200,
P,8.wav,0,0,0,41,41,0,,,,,bloc_c.xlsx,None,1,,,,,,,,,,,,1,0,1,0,0,0,0,1,0,41,41,41,475.98131780000404,,,,,,,,,,,,,,,,,,,,,,,,,,,,,,,,,,,,,475.96615799999563,475.98131780000404,476.46427880000556,477.9630734999955,None,1,,,,,,,,,,,,,,,,,,,,4,001,2026-04-28_09h17.26.978,untitled,,2025.1.1,60.03546895955558,2026-04-28 09h17.34.134060 +0200,
G,2.wav,0,0,0,42,42,0,,,,,bloc_c.xlsx,None,1,,,,,,,,,,,,1,0,1,0,0,0,0,1,0,42,42,42,477.9796784000064,,,,,,,,,,,,,,,,,,,,,,,,,,,,,,,,,,,,,477.96459940000204,477.9796784000064,478.4625773000007,479.96150599999237,None,1,,,,,,,,,,,,,,,,,,,,4,001,2026-04-28_09h17.26.978,untitled,,2025.1.1,60.03546895955558,2026-04-28 09h17.34.134060 +0200,
Q,4.wav,0,0,0,43,43,0,,,,,bloc_c.xlsx,space,0,1.8244306999840774,0.1219942000170704,,,,,,,,,,1,0,1,0,0,0,0,1,0,43,43,43,479.97793620001175,,,,,,,,,,,,,,,,,,,,,,,,,,,,,,,,,,,,,479.96305170000414,479.97793620001175,480.46102509999764,481.9599235999922,space,0,1.8244306999840774,0.1219942000170704,,,,,,,,,,,,,,,,,,4,001,2026-04-28_09h17.26.978,untitled,,2025.1.1,60.03546895955558,2026-04-28 09h17.34.134060 +0200,
B,6.wav,0,0,0,44,44,0,,,,,bloc_c.xlsx,None,1,,,,,,,,,,,,1,0,1,0,0,0,0,1,0,44,44,44,481.97639289998915,,,,,,,,,,,,,,,,,,,,,,,,,,,,,,,,,,,,,481.9626427000039,481.97639289998915,482.4593939000042,483.9581443000061,None,1,,,,,,,,,,,,,,,,,,,,4,001,2026-04-28_09h17.26.978,untitled,,2025.1.1,60.03546895955558,2026-04-28 09h17.34.134060 +0200,
Q,2.wav,1,0,0,45,45,0,,,,,bloc_c.xlsx,None,0,,,,,,,,,,,,1,0,1,0,0,0,0,1,0,45,45,45,483.9746881000174,,,,,,,,,,,,,,,,,,,,,,,,,,,,,,,,,,,,,483.9599576999899,483.9746881000174,484.4577674000175,485.97311900000204,None,0,,,485.9730166000081,,,,,,,,,,,,,,,,,4,001,2026-04-28_09h17.26.978,untitled,,2025.1.1,60.03546895955558,2026-04-28 09h17.34.134060 +0200,
E,3.wav,0,0,0,46,46,0,,,,,bloc_c.xlsx,None,1,,,,,,,,,,,,1,0,1,0,0,0,0,1,0,46,46,46,485.989802600001,,,,,,,,,,,,,,,,,,,,,,,,,,,,,,,,,,,,,485.97458800001186,485.989802600001,486.47263229999226,487.97152779999305,None,1,,,,,,,,,,,,,,,,,,,,4,001,2026-04-28_09h17.26.978,untitled,,2025.1.1,60.03546895955558,2026-04-28 09h17.34.134060 +0200,
U,2.wav,0,1,0,47,47,0,,,,,bloc_c.xlsx,None,1,,,,,,,,,,,,1,0,1,0,0,0,0,1,0,47,47,47,487.98817679999047,,,,,,,,,,,,,,,,,,,,,,,,,,,,,,,,,,,,,487.97304290000466,487.98817679999047,488.4709737999947,489.9698700000008,None,1,,,,,,,,,,,,,,,,,,,,4,001,2026-04-28_09h17.26.978,untitled,,2025.1.1,60.03546895955558,2026-04-28 09h17.34.134060 +0200,
D,4.wav,0,0,0,48,48,0,,,,,bloc_c.xlsx,None,1,,,,,,,,,,,,1,0,1,0,0,0,0,1,0,48,48,48,489.98655570001574,,,,,,,,,,,,,,,,,,,,,,,,,,,,,,,,,,,,,489.97126749999006,489.98655570001574,490.46927870000945,491.9683334000001,None,1,,,491.9681259999925,,,,,,,,,,,,,,,,,4,001,2026-04-28_09h17.26.978,untitled,,2025.1.1,60.03546895955558,2026-04-28 09h17.34.134060 +0200,
W,6.wav,0,0,0,49,49,0,,,,,bloc_c.xlsx,None,1,,,,,,,,,,,,1,0,1,0,0,0,0,1,0,49,49,49,491.9849990000075,,,,,,,,,,,,,,,,,,,,,,,,,,,,,,,,,,,,,491.9698014000023,491.9849990000075,492.4676172999898,493.96667329999036,None,1,,,,,,,,,,,,,,,,,,,,4,001,2026-04-28_09h17.26.978,untitled,,2025.1.1,60.03546895955558,2026-04-28 09h17.34.134060 +0200,
,,,,,0,0,0,,,,,bloc_c.xlsx,,,,,,,,,,,,,,1,0,1,0,0,0,0,1,,,,,,,,,,,,,,,,,,,,,,,,,,,,,,,,,,,,,,,,,,,,,,,,,,,,,,,,,,,,,,,,,,,4,001,2026-04-28_09h17.26.978,untitled,,2025.1.1,60.03546895955558,2026-04-28 09h17.34.134060 +0200,
P,3.wav,0,0,0,0,0,0,,,,,bloc_b.xlsx,None,1,,,,,,,,,,,,1,0,1,0,0,1,1,2,0,0,0,0,493.9845021000074,,,,,,,,,,,,,,,,,,,,,,,,,,,,,,,,,,,,,493.98350870001013,493.9845021000074,494.4661468999984,495.9650679999904,None,1,,,,,,,,,,,,,,,,,,,,4,001,2026-04-28_09h17.26.978,untitled,,2025.1.1,60.03546895955558,2026-04-28 09h17.34.134060 +0200,
N,1.wav,0,0,0,1,1,0,,,,,bloc_b.xlsx,None,1,,,,,,,,,,,,1,0,1,0,0,1,1,2,0,1,1,1,495.98156640000525,,,,,,,,,,,,,,,,,,,,,,,,,,,,,,,,,,,,,495.9665324999951,495.98156640000525,496.4644069999922,497.9634300000034,None,1,,,,,,,,,,,,,,,,,,,,4,001,2026-04-28_09h17.26.978,untitled,,2025.1.1,60.03546895955558,2026-04-28 09h17.34.134060 +0200,
U,2.wav,0,0,0,2,2,0,,,,,bloc_b.xlsx,None,1,,,,,,,,,,,,1,0,1,0,0,1,1,2,0,2,2,2,497.97991860000184,,,,,,,,,,,,,,,,,,,,,,,,,,,,,,,,,,,,,497.964787600009,497.97991860000184,498.46274019998964,499.96177460000035,None,1,,,,,,,,,,,,,,,,,,,,4,001,2026-04-28_09h17.26.978,untitled,,2025.1.1,60.03546895955558,2026-04-28 09h17.34.134060 +0200,
J,6.wav,0,0,0,3,3,0,,,,,bloc_b.xlsx,None,1,,,,,,,,,,,,1,0,1,0,0,1,1,2,0,3,3,3,499.97824510000646,,,,,,,,,,,,,,,,,,,,,,,,,,,,,,,,,,,,,499.96340120001696,499.97824510000646,500.4611703999981,501.96010890000616,None,1,,,,,,,,,,,,,,,,,,,,4,001,2026-04-28_09h17.26.978,untitled,,2025.1.1,60.03546895955558,2026-04-28 09h17.34.134060 +0200,
U,2.wav,1,1,1,4,4,0,,,,,bloc_b.xlsx,None,0,,,,,,,,,,,,1,0,1,0,0,1,1,2,0,4,4,4,501.97659549998934,,,,,,,,,,,,,,,,,,,,,,,,,,,,,,,,,,,,,501.9616223000048,501.97659549998934,502.4595918999985,503.9585997000104,None,0,,,,,,,,,,,,,,,,,,,,4,001,2026-04-28_09h17.26.978,untitled,,2025.1.1,60.03546895955558,2026-04-28 09h17.34.134060 +0200,
F,8.wav,0,0,0,5,5,0,,,,,bloc_b.xlsx,None,1,,,,,,,,,,,,1,0,1,0,0,1,1,2,0,5,5,5,503.9750386000087,,,,,,,,,,,,,,,,,,,,,,,,,,,,,,,,,,,,,503.9598785999988,503.9750386000087,504.45789039999363,505.9735365000088,None,1,,,505.9734121999936,,,,,,,,,,,,,,,,,4,001,2026-04-28_09h17.26.978,untitled,,2025.1.1,60.03546895955558,2026-04-28 09h17.34.134060 +0200,
V,5.wav,0,0,0,6,6,0,,,,,bloc_b.xlsx,None,1,,,,,,,,,,,,1,0,1,0,0,1,1,2,0,6,6,6,505.9903356000141,,,,,,,,,,,,,,,,,,,,,,,,,,,,,,,,,,,,,505.97483610000927,505.9903356000141,506.47300920001,507.97217620001175,None,1,,,,,,,,,,,,,,,,,,,,4,001,2026-04-28_09h17.26.978,untitled,,2025.1.1,60.03546895955558,2026-04-28 09h17.34.134060 +0200,
F,7.wav,1,0,0,7,7,0,,,,,bloc_b.xlsx,None,0,,,,,,,,,,,,1,0,1,0,0,1,1,2,0,7,7,7,507.98841749998974,,,,,,,,,,,,,,,,,,,,,,,,,,,,,,,,,,,,,507.9736991999962,507.98841749998974,508.47143569999025,509.97058860000107,None,0,,,,,,,,,,,,,,,,,,,,4,001,2026-04-28_09h17.26.978,untitled,,2025.1.1,60.03546895955558,2026-04-28 09h17.34.134060 +0200,
P,2.wav,0,0,0,8,8,0,,,,,bloc_b.xlsx,None,1,,,,,,,,,,,,1,0,1,0,0,1,1,2,0,8,8,8,509.98679009999614,,,,,,,,,,,,,,,,,,,,,,,,,,,,,,,,,,,,,509.97287890000734,509.98679009999614,510.4698141000117,511.96863760001725,None,1,,,,,,,,,,,,,,,,,,,,4,001,2026-04-28_09h17.26.978,untitled,,2025.1.1,60.03546895955558,2026-04-28 09h17.34.134060 +0200,
N,7.wav,0,1,0,9,9,0,,,,,bloc_b.xlsx,None,1,,,,,,,,,,,,1,0,1,0,0,1,1,2,0,9,9,9,511.9850479000015,,,,,,,,,,,,,,,,,,,,,,,,,,,,,,,,,,,,,511.97057780000614,511.9850479000015,512.4679948000121,513.9669896000123,None,1,,,513.9668616999988,,,,,,,,,,,,,,,,,4,001,2026-04-28_09h17.26.978,untitled,,2025.1.1,60.03546895955558,2026-04-28 09h17.34.134060 +0200,
C,5.wav,0,0,0,10,10,0,,,,,bloc_b.xlsx,None,1,,,,,,,,,,,,1,0,1,0,0,1,1,2,0,10,10,10,513.9834523000172,,,,,,,,,,,,,,,,,,,,,,,,,,,,,,,,,,,,,513.9687801999971,513.9834523000172,514.466360099992,515.965918700007,None,1,,,,,,,,,,,,,,,,,,,,4,001,2026-04-28_09h17.26.978,untitled,,2025.1.1,60.03546895955558,2026-04-28 09h17.34.134060 +0200,
L,6.wav,0,0,0,11,11,0,,,,,bloc_b.xlsx,None,1,,,,,,,,,,,,1,0,1,0,0,1,1,2,0,11,11,11,515.9818741999916,,,,,,,,,,,,,,,,,,,,,,,,,,,,,,,,,,,,,515.9677533000067,515.9818741999916,516.4646821999922,517.9647697999899,None,1,,,,,,,,,,,,,,,,,,,,4,001,2026-04-28_09h17.26.978,untitled,,2025.1.1,60.03546895955558,2026-04-28 09h17.34.134060 +0200,
E,1.wav,0,0,0,12,12,0,,,,,bloc_b.xlsx,None,1,,,,,,,,,,,,1,0,1,0,0,1,1,2,0,12,12,12,517.9801823000016,,,,,,,,,,,,,,,,,,,,,,,,,,,,,,,,,,,,,517.9664890000131,517.9801823000016,518.4631700000027,519.9621684000012,None,1,,,,,,,,,,,,,,,,,,,,4,001,2026-04-28_09h17.26.978,untitled,,2025.1.1,60.03546895955558,2026-04-28 09h17.34.134060 +0200,
K,5.wav,0,0,0,13,13,0,,,,,bloc_b.xlsx,None,1,,,,,,,,,,,,1,0,1,0,0,1,1,2,0,13,13,13,519.9786916000012,,,,,,,,,,,,,,,,,,,,,,,,,,,,,,,,,,,,,519.9637337000167,519.9786916000012,520.4614101999905,521.9602671999892,None,1,,,,,,,,,,,,,,,,,,,,4,001,2026-04-28_09h17.26.978,untitled,,2025.1.1,60.03546895955558,2026-04-28 09h17.34.134060 +0200,
E,1.wav,1,1,1,14,14,0,,,,,bloc_b.xlsx,space,1,1.5895152000011876,0.12228019998292439,,,,,,,,,,1,0,1,0,0,1,1,2,0,14,14,14,521.9767309000017,,,,,,,,,,,,,,,,,,,,,,,,,,,,,,,,,,,,,521.9621221999987,521.9767309000017,522.4597834000015,523.9587169000006,space,1,1.5895152000011876,0.12228019998292439,,,,,,,,,,,,,,,,,,4,001,2026-04-28_09h17.26.978,untitled,,2025.1.1,60.03546895955558,2026-04-28 09h17.34.134060 +0200,
U,7.wav,0,0,0,15,15,0,,,,,bloc_b.xlsx,None,1,,,,,,,,,,,,1,0,1,0,0,1,1,2,0,15,15,15,523.9752111000125,,,,,,,,,,,,,,,,,,,,,,,,,,,,,,,,,,,,,523.9602298999962,523.9752111000125,524.4581734999956,525.9736859000113,None,1,,,525.9735915999918,,,,,,,,,,,,,,,,,4,001,2026-04-28_09h17.26.978,untitled,,2025.1.1,60.03546895955558,2026-04-28 09h17.34.134060 +0200,
X,3.wav,0,0,0,16,16,0,,,,,bloc_b.xlsx,None,1,,,,,,,,,,,,1,0,1,0,0,1,1,2,0,16,16,16,525.990409799997,,,,,,,,,,,,,,,,,,,,,,,,,,,,,,,,,,,,,525.975446299999,525.990409799997,526.4731855000136,527.9721217000042,None,1,,,,,,,,,,,,,,,,,,,,4,001,2026-04-28_09h17.26.978,untitled,,2025.1.1,60.03546895955558,2026-04-28 09h17.34.134060 +0200,
L,4.wav,0,0,0,17,17,0,,,,,bloc_b.xlsx,None,1,,,,,,,,,,,,1,0,1,0,0,1,1,2,0,17,17,17,527.9884373999957,,,,,,,,,,,,,,,,,,,,,,,,,,,,,,,,,,,,,527.9741104000132,527.9884373999957,528.4717120999994,529.9703387999907,None,1,,,,,,,,,,,,,,,,,,,,4,001,2026-04-28_09h17.26.978,untitled,,2025.1.1,60.03546895955558,2026-04-28 09h17.34.134060 +0200,
B,3.wav,0,1,0,18,18,0,,,,,bloc_b.xlsx,None,1,,,,,,,,,,,,1,0,1,0,0,1,1,2,0,18,18,18,529.9868967999937,,,,,,,,,,,,,,,,,,,,,,,,,,,,,,,,,,,,,529.9718486999918,529.9868967999937,530.4698815000011,531.9688617000065,None,1,,,,,,,,,,,,,,,,,,,,4,001,2026-04-28_09h17.26.978,untitled,,2025.1.1,60.03546895955558,2026-04-28 09h17.34.134060 +0200,
L,5.wav,1,0,0,19,19,0,,,,,bloc_b.xlsx,space,1,1.7776318999822251,0.13553249998949468,,,,,,,,,,1,0,1,0,0,1,1,2,0,19,19,19,531.9851439000049,,,,,,,,,,,,,,,,,,,,,,,,,,,,,,,,,,,,,531.9704228999908,531.9851439000049,532.4682361000159,533.967440700013,space,1,1.7776318999822251,0.13553249998949468,,,,,,,,,,,,,,,,,,4,001,2026-04-28_09h17.26.978,untitled,,2025.1.1,60.03546895955558,2026-04-28 09h17.34.134060 +0200,
Q,2.wav,0,0,0,20,20,0,,,,,bloc_b.xlsx,None,1,,,,,,,,,,,,1,0,1,0,0,1,1,2,0,20,20,20,533.9833938000083,,,,,,,,,,,,,,,,,,,,,,,,,,,,,,,,,,,,,533.9690222000063,533.9833938000083,534.4665869000019,535.9654350999917,None,1,,,,,,,,,,,,,,,,,,,,4,001,2026-04-28_09h17.26.978,untitled,,2025.1.1,60.03546895955558,2026-04-28 09h17.34.134060 +0200,
B,7.wav,0,0,0,21,21,0,,,,,bloc_b.xlsx,None,1,,,,,,,,,,,,1,0,1,0,0,1,1,2,0,21,21,21,535.9818852999888,,,,,,,,,,,,,,,,,,,,,,,,,,,,,,,,,,,,,535.9669325000141,535.9818852999888,536.4649995999935,537.9638103999896,None,1,,,,,,,,,,,,,,,,,,,,4,001,2026-04-28_09h17.26.978,untitled,,2025.1.1,60.03546895955558,2026-04-28 09h17.34.134060 +0200,
W,1.wav,0,0,0,22,22,0,,,,,bloc_b.xlsx,None,1,,,,,,,,,,,,1,0,1,0,0,1,1,2,0,22,22,22,537.9802154999925,,,,,,,,,,,,,,,,,,,,,,,,,,,,,,,,,,,,,537.965448700008,537.9802154999925,538.4632028999913,539.962084800005,None,1,,,539.9619641999889,,,,,,,,,,,,,,,,,4,001,2026-04-28_09h17.26.978,untitled,,2025.1.1,60.03546895955558,2026-04-28 09h17.34.134060 +0200,
B,5.wav,1,0,0,23,23,0,,,,,bloc_b.xlsx,None,0,,,,,,,,,,,,1,0,1,0,0,1,1,2,0,23,23,23,539.9784886999987,,,,,,,,,,,,,,,,,,,,,,,,,,,,,,,,,,,,,539.9637679000152,539.9784886999987,540.4615433000145,541.9605437999999,None,0,,,,,,,,,,,,,,,,,,,,4,001,2026-04-28_09h17.26.978,untitled,,2025.1.1,60.03546895955558,2026-04-28 09h17.34.134060 +0200,
P,1.wav,0,1,0,24,24,0,,,,,bloc_b.xlsx,None,1,,,,,,,,,,,,1,0,1,0,0,1,1,2,0,24,24,24,541.9770525000058,,,,,,,,,,,,,,,,,,,,,,,,,,,,,,,,,,,,,541.9620534999995,541.9770525000058,542.4600644000166,543.9588605999888,None,1,,,,,,,,,,,,,,,,,,,,4,001,2026-04-28_09h17.26.978,untitled,,2025.1.1,60.03546895955558,2026-04-28 09h17.34.134060 +0200,
L,7.wav,0,0,0,25,25,0,,,,,bloc_b.xlsx,None,1,,,,,,,,,,,,1,0,1,0,0,1,1,2,0,25,25,25,543.9753957999928,,,,,,,,,,,,,,,,,,,,,,,,,,,,,,,,,,,,,543.9605064000061,543.9753957999928,544.4583219999913,545.9737718999968,None,1,,,545.9736802999978,,,,,,,,,,,,,,,,,4,001,2026-04-28_09h17.26.978,untitled,,2025.1.1,60.03546895955558,2026-04-28 09h17.34.134060 +0200,
D,6.wav,0,0,0,26,26,0,,,,,bloc_b.xlsx,None,1,,,,,,,,,,,,1,0,1,0,0,1,1,2,0,26,26,26,545.9903534000041,,,,,,,,,,,,,,,,,,,,,,,,,,,,,,,,,,,,,545.9755376999965,545.9903534000041,546.4567591999948,547.9721099000017,None,1,,,547.9720063999994,,,,,,,,,,,,,,,,,4,001,2026-04-28_09h17.26.978,untitled,,2025.1.1,60.03546895955558,2026-04-28 09h17.34.134060 +0200,
S,3.wav,0,0,0,27,27,0,,,,,bloc_b.xlsx,None,1,,,,,,,,,,,,1,0,1,0,0,1,1,2,0,27,27,27,547.9887408000068,,,,,,,,,,,,,,,,,,,,,,,,,,,,,,,,,,,,,547.9735183000157,547.9887408000068,548.4717980000132,549.9705399000086,None,1,,,,,,,,,,,,,,,,,,,,4,001,2026-04-28_09h17.26.978,untitled,,2025.1.1,60.03546895955558,2026-04-28 09h17.34.134060 +0200,
W,8.wav,0,0,0,28,28,0,,,,,bloc_b.xlsx,None,1,,,,,,,,,,,,1,0,1,0,0,1,1,2,0,28,28,28,549.987311600009,,,,,,,,,,,,,,,,,,,,,,,,,,,,,,,,,,,,,549.9717275000003,549.987311600009,550.4700409999932,551.9687354000052,None,1,,,,,,,,,,,,,,,,,,,,4,001,2026-04-28_09h17.26.978,untitled,,2025.1.1,60.03546895955558,2026-04-28 09h17.34.134060 +0200,
L,3.wav,0,1,0,29,29,0,,,,,bloc_b.xlsx,None,1,,,,,,,,,,,,1,0,1,0,0,1,1,2,0,29,29,29,551.9855453000055,,,,,,,,,,,,,,,,,,,,,,,,,,,,,,,,,,,,,551.9700661000097,551.9855453000055,552.468360800005,553.9672649000131,None,1,,,,,,,,,,,,,,,,,,,,4,001,2026-04-28_09h17.26.978,untitled,,2025.1.1,60.03546895955558,2026-04-28 09h17.34.134060 +0200,
W,6.wav,1,0,0,30,30,0,,,,,bloc_b.xlsx,None,0,,,,,,,,,,,,1,0,1,0,0,1,1,2,0,30,30,30,553.9838916000153,,,,,,,,,,,,,,,,,,,,,,,,,,,,,,,,,,,,,553.9688872999977,553.9838916000153,554.4666197999904,555.9656810000015,None,0,,,,,,,,,,,,,,,,,,,,4,001,2026-04-28_09h17.26.978,untitled,,2025.1.1,60.03546895955558,2026-04-28 09h17.34.134060 +0200,
H,1.wav,0,0,0,31,31,0,,,,,bloc_b.xlsx,None,1,,,,,,,,,,,,1,0,1,0,0,1,1,2,0,31,31,31,555.9823780000152,,,,,,,,,,,,,,,,,,,,,,,,,,,,,,,,,,,,,555.9671663999907,555.9823780000152,556.465194199991,557.9639801000012,None,1,,,,,,,,,,,,,,,,,,,,4,001,2026-04-28_09h17.26.978,untitled,,2025.1.1,60.03546895955558,2026-04-28 09h17.34.134060 +0200,
Y,4.wav,0,0,0,32,32,0,,,,,bloc_b.xlsx,None,1,,,,,,,,,,,,1,0,1,0,0,1,1,2,0,32,32,32,557.9806264000072,,,,,,,,,,,,,,,,,,,,,,,,,,,,,,,,,,,,,557.9654541999917,557.9806264000072,558.4633462000056,559.9623225000105,None,1,,,,,,,,,,,,,,,,,,,,4,001,2026-04-28_09h17.26.978,untitled,,2025.1.1,60.03546895955558,2026-04-28 09h17.34.134060 +0200,
R,1.wav,0,1,0,33,33,0,,,,,bloc_b.xlsx,None,1,,,,,,,,,,,,1,0,1,0,0,1,1,2,0,33,33,33,559.9789960999915,,,,,,,,,,,,,,,,,,,,,,,,,,,,,,,,,,,,,559.963716600003,559.9789960999915,560.4618503999955,561.9605565000093,None,1,,,,,,,,,,,,,,,,,,,,4,001,2026-04-28_09h17.26.978,untitled,,2025.1.1,60.03546895955558,2026-04-28 09h17.34.134060 +0200,
J,8.wav,0,0,0,34,34,0,,,,,bloc_b.xlsx,None,1,,,,,,,,,,,,1,0,1,0,0,1,1,2,0,34,34,34,561.9772103000141,,,,,,,,,,,,,,,,,,,,,,,,,,,,,,,,,,,,,561.962288300012,561.9772103000141,562.4601382999972,563.9590437000152,None,1,,,,,,,,,,,,,,,,,,,,4,001,2026-04-28_09h17.26.978,untitled,,2025.1.1,60.03546895955558,2026-04-28 09h17.34.134060 +0200,
R,5.wav,1,0,0,35,35,0,,,,,bloc_b.xlsx,None,0,,,,,,,,,,,,1,0,1,0,0,1,1,2,0,35,35,35,563.9755761999986,,,,,,,,,,,,,,,,,,,,,,,,,,,,,,,,,,,,,563.9609632999927,563.9755761999986,564.4584927000105,565.9740771999932,None,0,,,565.9739405,,,,,,,,,,,,,,,,,4,001,2026-04-28_09h17.26.978,untitled,,2025.1.1,60.03546895955558,2026-04-28 09h17.34.134060 +0200,
S,2.wav,0,0,0,36,36,0,,,,,bloc_b.xlsx,None,1,,,,,,,,,,,,1,0,1,0,0,1,1,2,0,36,36,36,565.990707799996,,,,,,,,,,,,,,,,,,,,,,,,,,,,,,,,,,,,,565.9755423000024,565.990707799996,566.4569177000085,567.9725436000153,None,1,,,567.972422699997,,,,,,,,,,,,,,,,,4,001,2026-04-28_09h17.26.978,untitled,,2025.1.1,60.03546895955558,2026-04-28 09h17.34.134060 +0200,
W,5.wav,0,1,0,37,37,0,,,,,bloc_b.xlsx,None,1,,,,,,,,,,,,1,0,1,0,0,1,1,2,0,37,37,37,567.9889130000083,,,,,,,,,,,,,,,,,,,,,,,,,,,,,,,,,,,,,567.9740654999914,567.9889130000083,568.4719008000102,569.9708388000145,None,1,,,,,,,,,,,,,,,,,,,,4,001,2026-04-28_09h17.26.978,untitled,,2025.1.1,60.03546895955558,2026-04-28 09h17.34.134060 +0200,
S,8.wav,1,0,0,38,38,0,,,,,bloc_b.xlsx,None,0,,,,,,,,,,,,1,0,1,0,0,1,1,2,0,38,38,38,569.9872472000134,,,,,,,,,,,,,,,,,,,,,,,,,,,,,,,,,,,,,569.9725315000105,569.9872472000134,570.4703449000081,571.9692373000144,None,0,,,,,,,,,,,,,,,,,,,,4,001,2026-04-28_09h17.26.978,untitled,,2025.1.1,60.03546895955558,2026-04-28 09h17.34.134060 +0200,
V,1.wav,0,0,0,39,39,0,,,,,bloc_b.xlsx,None,1,,,,,,,,,,,,1,0,1,0,0,1,1,2,0,39,39,39,571.9856672000024,,,,,,,,,,,,,,,,,,,,,,,,,,,,,,,,,,,,,571.9710652999929,571.9856672000024,572.46873220001,573.9676053000148,None,1,,,,,,,,,,,,,,,,,,,,4,001,2026-04-28_09h17.26.978,untitled,,2025.1.1,60.03546895955558,2026-04-28 09h17.34.134060 +0200,
M,4.wav,0,0,0,40,40,0,,,,,bloc_b.xlsx,None,1,,,,,,,,,,,,1,0,1,0,0,1,1,2,0,40,40,40,573.9840356000059,,,,,,,,,,,,,,,,,,,,,,,,,,,,,,,,,,,,,573.9690732000163,573.9840356000059,574.4670390000101,575.9658565999998,None,1,,,,,,,,,,,,,,,,,,,,4,001,2026-04-28_09h17.26.978,untitled,,2025.1.1,60.03546895955558,2026-04-28 09h17.34.134060 +0200,
H,5.wav,0,0,0,41,41,0,,,,,bloc_b.xlsx,None,1,,,,,,,,,,,,1,0,1,0,0,1,1,2,0,41,41,41,575.982451799995,,,,,,,,,,,,,,,,,,,,,,,,,,,,,,,,,,,,,575.967212699994,575.982451799995,576.4654136000026,577.9643890000007,None,1,,,,,,,,,,,,,,,,,,,,4,001,2026-04-28_09h17.26.978,untitled,,2025.1.1,60.03546895955558,2026-04-28 09h17.34.134060 +0200,
S,2.wav,0,0,0,42,42,0,,,,,bloc_b.xlsx,None,1,,,,,,,,,,,,1,0,1,0,0,1,1,2,0,42,42,42,577.980810100009,,,,,,,,,,,,,,,,,,,,,,,,,,,,,,,,,,,,,577.9662123000016,577.980810100009,578.4636998999922,579.962704000005,None,1,,,,,,,,,,,,,,,,,,,,4,001,2026-04-28_09h17.26.978,untitled,,2025.1.1,60.03546895955558,2026-04-28 09h17.34.134060 +0200,
H,5.wav,1,1,1,43,43,0,,,,,bloc_b.xlsx,None,0,,,,,,,,,,,,1,0,1,0,0,1,1,2,0,43,43,43,579.9791569999943,,,,,,,,,,,,,,,,,,,,,,,,,,,,,,,,,,,,,579.9642628000001,579.9791569999943,580.4621211999911,581.9610009000171,None,0,,,,,,,,,,,,,,,,,,,,4,001,2026-04-28_09h17.26.978,untitled,,2025.1.1,60.03546895955558,2026-04-28 09h17.34.134060 +0200,
U,6.wav,0,0,0,44,44,0,,,,,bloc_b.xlsx,None,1,,,,,,,,,,,,1,0,1,0,0,1,1,2,0,44,44,44,581.9774083000084,,,,,,,,,,,,,,,,,,,,,,,,,,,,,,,,,,,,,581.9630264000152,581.9774083000084,582.4604698999901,583.9593410000089,None,1,,,,,,,,,,,,,,,,,,,,4,001,2026-04-28_09h17.26.978,untitled,,2025.1.1,60.03546895955558,2026-04-28 09h17.34.134060 +0200,
W,3.wav,0,0,0,45,45,0,,,,,bloc_b.xlsx,None,1,,,,,,,,,,,,1,0,1,0,0,1,1,2,0,45,45,45,583.9759039999917,,,,,,,,,,,,,,,,,,,,,,,,,,,,,,,,,,,,,583.9608721999975,583.9759039999917,584.4588066000142,585.9577147999953,None,1,,,,,,,,,,,,,,,,,,,,4,001,2026-04-28_09h17.26.978,untitled,,2025.1.1,60.03546895955558,2026-04-28 09h17.34.134060 +0200,
J,6.wav,0,1,0,46,46,0,,,,,bloc_b.xlsx,None,1,,,,,,,,,,,,1,0,1,0,0,1,1,2,0,46,46,46,585.9742171000107,,,,,,,,,,,,,,,,,,,,,,,,,,,,,,,,,,,,,585.9595065999893,585.9742171000107,586.4572378000012,587.9727225000097,None,1,,,587.9726037000073,,,,,,,,,,,,,,,,,4,001,2026-04-28_09h17.26.978,untitled,,2025.1.1,60.03546895955558,2026-04-28 09h17.34.134060 +0200,
M,5.wav,0,0,0,47,47,0,,,,,bloc_b.xlsx,None,1,,,,,,,,,,,,1,0,1,0,0,1,1,2,0,47,47,47,587.9891176999954,,,,,,,,,,,,,,,,,,,,,,,,,,,,,,,,,,,,,587.9743632000173,587.9891176999954,588.4721231000149,589.9711514000082,None,1,,,,,,,,,,,,,,,,,,,,4,001,2026-04-28_09h17.26.978,untitled,,2025.1.1,60.03546895955558,2026-04-28 09h17.34.134060 +0200,
J,1.wav,1,0,0,48,48,0,,,,,bloc_b.xlsx,None,0,,,,,,,,,,,,1,0,1,0,0,1,1,2,0,48,48,48,589.9874526000058,,,,,,,,,,,,,,,,,,,,,,,,,,,,,,,,,,,,,589.9726061999972,589.9874526000058,590.4703676000063,591.9695288999937,None,0,,,,,,,,,,,,,,,,,,,,4,001,2026-04-28_09h17.26.978,untitled,,2025.1.1,60.03546895955558,2026-04-28 09h17.34.134060 +0200,
B,7.wav,0,0,0,49,49,0,,,,,bloc_b.xlsx,None,1,,,,,,,,,,,,1,0,1,0,0,1,1,2,0,49,49,49,591.985838499997,,,,,,,,,,,,,,,,,,,,,,,,,,,,,,,,,,,,,591.9712034999975,591.985838499997,592.4690314999898,593.9678858999978,None,1,,,,,,,,,,,,,,,,,,,,4,001,2026-04-28_09h17.26.978,untitled,,2025.1.1,60.03546895955558,2026-04-28 09h17.34.134060 +0200,
,,,,,1,1,0,,,,,bloc_b.xlsx,,,,,,,,,,,,,,1,0,1,0,0,1,1,2,,,,,,,,,,,,,,,,,,,,,,,,,,,,,,,,,,,,,,,,,,,,,,,,,,,,,,,,,,,,,,,,,,,4,001,2026-04-28_09h17.26.978,untitled,,2025.1.1,60.03546895955558,2026-04-28 09h17.34.134060 +0200,
D,5.wav,0,0,0,0,0,0,,,,,bloc_a.xlsx,None,1,,,,,,,,,,,,1,0,1,0,0,2,2,0,0,0,0,0,593.989089300012,,,,,,,,,,,,,,,,,,,,,,,,,,,,,,,,,,,,,593.9880421000125,593.989089300012,594.467293499998,595.9661068000132,None,1,,,,,,,,,,,,,,,,,,,,4,001,2026-04-28_09h17.26.978,untitled,,2025.1.1,60.03546895955558,2026-04-28 09h17.34.134060 +0200,
