stimulus,sound_file,letter_isTarget,sound_isTarget,dual_target,thisN,thisTrialN,thisRepN,key_resp_2.keys,key_resp_2.corr,key_resp_2.rt,key_resp_2.duration,cond_file,key_resp.keys,key_resp.corr,key_resp.rt,key_resp.duration,RSME_ticks.response,RSME_ticks.rt,button_next_11.numClicks,button_next_11.timesOn,button_next_11.timesOff,practice_trials.thisRepN,practice_trials.thisTrialN,practice_trials.thisN,practice_trials.thisIndex,blocs_loops.thisRepN,blocs_loops.thisTrialN,blocs_loops.thisN,blocs_loops.thisIndex,sequence_of_trials_X3.thisRepN,sequence_of_trials_X3.thisTrialN,sequence_of_trials_X3.thisN,sequence_of_trials_X3.thisIndex,trials_X50.thisRepN,trials_X50.thisTrialN,trials_X50.thisN,trials_X50.thisIndex,thisRow.t,notes,INIT_LSL.started,text_init.started,text_init.stopped,INIT_LSL.stopped,init.started,text_6.started,key_resp_5.started,init.stopped,key_resp_5.keys,key_resp_5.rt,key_resp_5.duration,instructions.started,text_5.started,key_resp_3.started,instructions.stopped,key_resp_3.keys,key_resp_3.rt,key_resp_3.duration,practice_trial.started,key_resp_2.started,feedback_text.started,text_2.started,text_2.stopped,practice_trial.stopped,practice_trials.key_resp_2.keys,practice_trials.key_resp_2.corr,practice_trials.key_resp_2.rt,practice_trials.key_resp_2.duration,instructions_finale.started,text_4.started,key_resp_4.started,instructions_finale.stopped,key_resp_4.keys,key_resp_4.rt,key_resp_4.duration,trial.started,key_resp.started,text.started,trial.stopped,trials_X50.key_resp.keys,trials_X50.key_resp.corr,trials_X50.key_resp.rt,trials_X50.key_resp.duration,text.stopped,KSS_POST_BLOCK.started,RSME_labels.started,RSME_ticks.started,RSME_text.started,answer1_text.started,button_next_11.started,KSS_POST_BLOCK.stopped,blocs_loops.RSME_ticks.response,blocs_loops.RSME_ticks.rt,blocs_loops.button_next_11.numClicks,blocs_loops.button_next_11.timesOn,blocs_loops.button_next_11.timesOff,participant,session,date,expName,expVersion,psychopyVersion,frameRate,expStart,
,,,,,,,,,,,,,,,,,,,,,,,,,,,,,,,,,,,,,,,,0.003988000000390457,0.005730599999878905,1.0138467000015225,0.9973539000002347,,,,,,,,,,,,,,,,,,,,,,,,,,,,,,,,,,,,,,,,,,,,,,,,,,,,,5 2BACK,001,2026-05-03_05h53.36.979,untitled,,2025.1.1,60.02433386528198,2026-05-03 05h53.51.730437 +0200,
,,,,,,,,,,,,,,,,,,,,,,,,,,,,,,,,,,,,,,,,,,,,0.9973858000012115,1.0138467000015225,1.0138467000015225,8.46169490000102,space,7.435271099999227,None,,,,,,,,,,,,,,,,,,,,,,,,,,,,,,,,,,,,,,,,,,,,,,5 2BACK,001,2026-05-03_05h53.36.979,untitled,,2025.1.1,60.02433386528198,2026-05-03 05h53.51.730437 +0200,
,,,,,,,,,,,,,,,,,,,,,,,,,,,,,,,,,,,,,,,,,,,,,,,,,,,8.461732499999925,8.474282300001505,8.474282300001505,11.488943400001517,space,2.9981434000001173,None,,,,,,,,,,,,,,,,,,,,,,,,,,,,,,,,,,,,,,,5 2BACK,001,2026-05-03_05h53.36.979,untitled,,2025.1.1,60.02433386528198,2026-05-03 05h53.51.730437 +0200,
L,1.wav,0,0,0,0,0,0,None,1,,,,,,,,,,,,,0,0,0,0,,,,,,,,,,,,,11.504971899999873,,,,,,,,,,,,,,,,,,,,11.499990800000887,11.504971899999873,11.504971899999873,11.988008600001194,13.503584600000977,13.503706700001203,None,1,,,,,,,,,,,,,,,,,,,,,,,,,,,,,,,5 2BACK,001,2026-05-03_05h53.36.979,untitled,,2025.1.1,60.02433386528198,2026-05-03 05h53.51.730437 +0200,
M,2.wav,0,0,0,1,1,0,None,1,,,,,,,,,,,,,0,1,1,1,,,,,,,,,,,,,13.520081300001038,,,,,,,,,,,,,,,,,,,,13.506948700000066,13.520081300001038,13.520081300001038,14.003142800000205,,15.502193199999965,None,1,,,,,,,,,,,,,,,,,,,,,,,,,,,,,,,5 2BACK,001,2026-05-03_05h53.36.979,untitled,,2025.1.1,60.02433386528198,2026-05-03 05h53.51.730437 +0200,
L,1.wav,1,1,1,2,2,0,space,1,0.8702810000013415,0.12822439999945345,,,,,,,,,,,0,2,2,2,,,,,,,,,,,,,15.518418700001348,,,,,,,,,,,,,,,,,,,,15.503725100001247,15.518418700001348,15.518418700001348,16.001492600000347,,17.500284900001134,space,1,0.8702810000013415,0.12822439999945345,,,,,,,,,,,,,,,,,,,,,,,,,,,,,5 2BACK,001,2026-05-03_05h53.36.979,untitled,,2025.1.1,60.02433386528198,2026-05-03 05h53.51.730437 +0200,
B,8.wav,0,0,0,3,3,0,None,1,,,,,,,,,,,,,0,3,3,3,,,,,,,,,,,,,17.516579700000875,,,,,,,,,,,,,,,,,,,,17.50221220000094,17.516579700000875,17.516579700000875,17.9999039000013,,19.498979100000724,None,1,,,,,,,,,,,,,,,,,,,,,,,,,,,,,,,5 2BACK,001,2026-05-03_05h53.36.979,untitled,,2025.1.1,60.02433386528198,2026-05-03 05h53.51.730437 +0200,
G,3.wav,0,0,0,4,4,0,None,1,,,,,,,,,,,,,0,4,4,4,,,,,,,,,,,,,19.51509790000091,,,,,,,,,,,,,,,,,,,,19.50360660000115,19.51509790000091,19.51509790000091,19.998129500001596,,21.497285400000692,None,1,,,,,,,,,,,,,,,,,,,,,,,,,,,,,,,5 2BACK,001,2026-05-03_05h53.36.979,untitled,,2025.1.1,60.02433386528198,2026-05-03 05h53.51.730437 +0200,
B,2.wav,1,0,0,5,5,0,space,1,0.8643157000005885,0.12204489999930956,,,,,,,,,,,0,5,5,5,,,,,,,,,,,,,21.513493400001607,,,,,,,,,,,,,,,,,,,,21.49888910000118,21.513493400001607,21.513493400001607,21.99657130000014,,23.495720300001267,space,1,0.8643157000005885,0.12204489999930956,,,,,,,,,,,,,,,,,,,,,,,,,,,,,5 2BACK,001,2026-05-03_05h53.36.979,untitled,,2025.1.1,60.02433386528198,2026-05-03 05h53.51.730437 +0200,
F,1.wav,0,0,0,6,6,0,None,1,,,,,,,,,,,,,0,6,6,6,,,,,,,,,,,,,23.51167870000063,,,,,,,,,,,,,,,,,,,,23.501232500000697,23.51167870000063,23.51167870000063,23.994910100000197,,25.493995100001484,None,1,,,,,,,,,,,,,,,,,,,,,,,,,,,,,,,5 2BACK,001,2026-05-03_05h53.36.979,untitled,,2025.1.1,60.02433386528198,2026-05-03 05h53.51.730437 +0200,
N,5.wav,0,0,0,7,7,0,None,1,,,,,,,,,,,,,0,7,7,7,,,,,,,,,,,,,25.510245600000417,,,,,,,,,,,,,,,,,,,,25.4980282000015,25.510245600000417,25.510245600000417,25.993217000001096,,27.49247540000033,None,1,,,,,,,,,,,,,,,,,,,,,,,,,,,,,,,5 2BACK,001,2026-05-03_05h53.36.979,untitled,,2025.1.1,60.02433386528198,2026-05-03 05h53.51.730437 +0200,
V,1.wav,0,1,0,8,8,0,None,1,,,,,,,,,,,,,0,8,8,8,,,,,,,,,,,,,27.508542999999918,,,,,,,,,,,,,,,,,,,,27.496921400001156,27.508542999999918,27.508542999999918,27.99161660000027,,29.490625100001125,None,1,,,,,,,,,,,,,,,,,,,,,,,,,,,,,,,5 2BACK,001,2026-05-03_05h53.36.979,untitled,,2025.1.1,60.02433386528198,2026-05-03 05h53.51.730437 +0200,
L,6.wav,0,0,0,9,9,0,None,1,,,,,,,,,,,,,0,9,9,9,,,,,,,,,,,,,29.5068854000001,,,,,,,,,,,,,,,,,,,,29.4921288000005,29.5068854000001,29.5068854000001,29.990062100001524,31.505352700000003,31.505627800001093,None,1,,,,,,,,,,,,,,,,,,,,,,,,,,,,,,,5 2BACK,001,2026-05-03_05h53.36.979,untitled,,2025.1.1,60.02433386528198,2026-05-03 05h53.51.730437 +0200,
H,7.wav,0,0,0,10,10,0,None,1,,,,,,,,,,,,,0,10,10,10,,,,,,,,,,,,,31.521972900000037,,,,,,,,,,,,,,,,,,,,31.50998780000009,31.521972900000037,31.521972900000037,31.988398900000902,33.50355850000051,33.50372750000133,None,1,,,,,,,,,,,,,,,,,,,,,,,,,,,,,,,5 2BACK,001,2026-05-03_05h53.36.979,untitled,,2025.1.1,60.02433386528198,2026-05-03 05h53.51.730437 +0200,
L,4.wav,1,0,0,11,11,0,space,1,0.8228698000002623,0.14023620000079973,,,,,,,,,,,0,11,11,11,,,,,,,,,,,,,33.520395600000484,,,,,,,,,,,,,,,,,,,,33.50531790000059,33.520395600000484,33.520395600000484,34.003331800000524,,35.50236070000028,space,1,0.8228698000002623,0.14023620000079973,,,,,,,,,,,,,,,,,,,,,,,,,,,,,5 2BACK,001,2026-05-03_05h53.36.979,untitled,,2025.1.1,60.02433386528198,2026-05-03 05h53.51.730437 +0200,
F,3.wav,0,0,0,12,12,0,None,1,,,,,,,,,,,,,0,12,12,12,,,,,,,,,,,,,35.51876020000054,,,,,,,,,,,,,,,,,,,,35.5037812999999,35.51876020000054,35.51876020000054,36.00165160000142,,37.50050620000002,None,1,,,,,,,,,,,,,,,,,,,,,,,,,,,,,,,5 2BACK,001,2026-05-03_05h53.36.979,untitled,,2025.1.1,60.02433386528198,2026-05-03 05h53.51.730437 +0200,
A,6.wav,0,0,0,13,13,0,None,1,,,,,,,,,,,,,0,13,13,13,,,,,,,,,,,,,37.51705890000085,,,,,,,,,,,,,,,,,,,,37.50467790000039,37.51705890000085,37.51705890000085,38.000023300000976,,39.49912050000057,None,1,,,,,,,,,,,,,,,,,,,,,,,,,,,,,,,5 2BACK,001,2026-05-03_05h53.36.979,untitled,,2025.1.1,60.02433386528198,2026-05-03 05h53.51.730437 +0200,
R,1.wav,0,0,0,14,14,0,None,1,,,,,,,,,,,,,0,14,14,14,,,,,,,,,,,,,39.51539760000014,,,,,,,,,,,,,,,,,,,,39.5030252000015,39.51539760000014,39.51539760000014,39.99824249999983,41.49697340000057,41.4972611000012,None,1,,,,,,,,,,,,,,,,,,,,,,,,,,,,,,,5 2BACK,001,2026-05-03_05h53.36.979,untitled,,2025.1.1,60.02433386528198,2026-05-03 05h53.51.730437 +0200,
D,6.wav,0,1,0,15,15,0,None,1,,,,,,,,,,,,,0,15,15,15,,,,,,,,,,,,,41.51362370000061,,,,,,,,,,,,,,,,,,,,41.50158499999998,41.51362370000061,41.51362370000061,41.99671590000071,,43.49588920000133,None,1,,,,,,,,,,,,,,,,,,,,,,,,,,,,,,,5 2BACK,001,2026-05-03_05h53.36.979,untitled,,2025.1.1,60.02433386528198,2026-05-03 05h53.51.730437 +0200,
R,4.wav,1,0,0,16,16,0,space,1,0.8141605000000709,0.11930910000046424,,,,,,,,,,,0,16,16,16,,,,,,,,,,,,,43.51216890000069,,,,,,,,,,,,,,,,,,,,43.49790230000144,43.51216890000069,43.51216890000069,43.99500320000152,,45.49393969999983,space,1,0.8141605000000709,0.11930910000046424,,,,,,,,,,,,,,,,,,,,,,,,,,,,,5 2BACK,001,2026-05-03_05h53.36.979,untitled,,2025.1.1,60.02433386528198,2026-05-03 05h53.51.730437 +0200,
X,3.wav,0,0,0,17,17,0,None,1,,,,,,,,,,,,,0,17,17,17,,,,,,,,,,,,,45.51043110000137,,,,,,,,,,,,,,,,,,,,45.49834960000044,45.51043110000137,45.51043110000137,45.9933570000012,47.49218770000152,47.49237390000053,None,1,,,,,,,,,,,,,,,,,,,,,,,,,,,,,,,5 2BACK,001,2026-05-03_05h53.36.979,untitled,,2025.1.1,60.02433386528198,2026-05-03 05h53.51.730437 +0200,
N,7.wav,0,0,0,18,18,0,None,1,,,,,,,,,,,,,0,18,18,18,,,,,,,,,,,,,47.508890500001144,,,,,,,,,,,,,,,,,,,,47.49390250000033,47.508890500001144,47.508890500001144,47.9918146,,49.49073430000135,None,1,,,,,,,,,,,,,,,,,,,,,,,,,,,,,,,5 2BACK,001,2026-05-03_05h53.36.979,untitled,,2025.1.1,60.02433386528198,2026-05-03 05h53.51.730437 +0200,
C,5.wav,0,0,0,19,19,0,None,1,,,,,,,,,,,,,0,19,19,19,,,,,,,,,,,,,49.50717369999984,,,,,,,,,,,,,,,,,,,,49.49415920000138,49.50717369999984,49.50717369999984,49.990131100001236,51.505560900001,51.50597370000105,None,1,,,,,,,,,,,,,,,,,,,,,,,,,,,,,,,5 2BACK,001,2026-05-03_05h53.36.979,untitled,,2025.1.1,60.02433386528198,2026-05-03 05h53.51.730437 +0200,
A,2.wav,0,0,0,20,20,0,None,1,,,,,,,,,,,,,0,20,20,20,,,,,,,,,,,,,51.52229570000054,,,,,,,,,,,,,,,,,,,,51.50765800000045,51.52229570000054,51.52229570000054,51.98860870000135,53.50401560000137,53.50441090000095,None,1,,,,,,,,,,,,,,,,,,,,,,,,,,,,,,,5 2BACK,001,2026-05-03_05h53.36.979,untitled,,2025.1.1,60.02433386528198,2026-05-03 05h53.51.730437 +0200,
N,7.wav,0,0,0,21,21,0,None,1,,,,,,,,,,,,,0,21,21,21,,,,,,,,,,,,,53.52072399999997,,,,,,,,,,,,,,,,,,,,53.505967600000076,53.52072399999997,53.52072399999997,54.00361800000064,,55.50255819999984,None,1,,,,,,,,,,,,,,,,,,,,,,,,,,,,,,,5 2BACK,001,2026-05-03_05h53.36.979,untitled,,2025.1.1,60.02433386528198,2026-05-03 05h53.51.730437 +0200,
S,2.wav,0,1,0,22,22,0,None,1,,,,,,,,,,,,,0,22,22,22,,,,,,,,,,,,,55.51887640000132,,,,,,,,,,,,,,,,,,,,55.5066024000007,55.51887640000132,55.51887640000132,56.00190720000137,,57.50091109999994,None,1,,,,,,,,,,,,,,,,,,,,,,,,,,,,,,,5 2BACK,001,2026-05-03_05h53.36.979,untitled,,2025.1.1,60.02433386528198,2026-05-03 05h53.51.730437 +0200,
D,8.wav,0,0,0,23,23,0,None,1,,,,,,,,,,,,,0,23,23,23,,,,,,,,,,,,,57.51733260000037,,,,,,,,,,,,,,,,,,,,57.50260140000137,57.51733260000037,57.51733260000037,58.00019770000108,,59.49928330000148,None,1,,,,,,,,,,,,,,,,,,,,,,,,,,,,,,,5 2BACK,001,2026-05-03_05h53.36.979,untitled,,2025.1.1,60.02433386528198,2026-05-03 05h53.51.730437 +0200,
,,,,,,,,,,,,,,,,,,,,,,,,,,,,,,,,,,,,,,,,,,,,,,,,,,,,,,,,,,,,,,,,,,,,59.49948750000112,59.51564099999996,59.51564099999996,60.981147899999996,space,1.4499793000013597,None,,,,,,,,,,,,,,,,,,,,,,5 2BACK,001,2026-05-03_05h53.36.979,untitled,,2025.1.1,60.02433386528198,2026-05-03 05h53.51.730437 +0200,
P,3.wav,0,0,0,0,0,0,,,,,bloc_b.xlsx,None,1,,,,,,,,,,,,0,0,0,0,0,0,0,2,0,0,0,0,61.00190890000158,,,,,,,,,,,,,,,,,,,,,,,,,,,,,,,,,,,,,61.00007000000005,61.00190890000158,61.49743040000067,62.996363800000836,None,1,,,,,,,,,,,,,,,,5 2BACK,001,2026-05-03_05h53.36.979,untitled,,2025.1.1,60.02433386528198,2026-05-03 05h53.51.730437 +0200,
N,1.wav,0,0,0,1,1,0,,,,,bloc_b.xlsx,None,1,,,,,,,,,,,,0,0,0,0,0,0,0,2,0,1,1,1,63.0127433000016,,,,,,,,,,,,,,,,,,,,,,,,,,,,,,,,,,,,,62.998193000001265,63.0127433000016,63.49573860000055,64.99470090000068,None,1,,,,,,,,,,,,,,,,5 2BACK,001,2026-05-03_05h53.36.979,untitled,,2025.1.1,60.02433386528198,2026-05-03 05h53.51.730437 +0200,
U,2.wav,0,0,0,2,2,0,,,,,bloc_b.xlsx,None,1,,,,,,,,,,,,0,0,0,0,0,0,0,2,0,2,2,2,65.01114349999989,,,,,,,,,,,,,,,,,,,,,,,,,,,,,,,,,,,,,64.99855449999995,65.01114349999989,65.49402680000094,66.9929542000009,None,1,,,,,,,,,,,,,,,,5 2BACK,001,2026-05-03_05h53.36.979,untitled,,2025.1.1,60.02433386528198,2026-05-03 05h53.51.730437 +0200,
J,6.wav,0,0,0,3,3,0,,,,,bloc_b.xlsx,None,1,,,,,,,,,,,,0,0,0,0,0,0,0,2,0,3,3,3,67.00947890000134,,,,,,,,,,,,,,,,,,,,,,,,,,,,,,,,,,,,,66.99621579999985,67.00947890000134,67.49249400000008,68.9915527000012,None,1,,,,,,,,,,,,,,,,5 2BACK,001,2026-05-03_05h53.36.979,untitled,,2025.1.1,60.02433386528198,2026-05-03 05h53.51.730437 +0200,
U,2.wav,1,1,1,4,4,0,,,,,bloc_b.xlsx,space,1,0.838943200000358,0.17460879999998724,,,,,,,,,,0,0,0,0,0,0,0,2,0,4,4,4,69.04784269999982,,,,,,,,,,,,,,,,,,,,,,,,,,,,,,,,,,,,,69.04593550000027,69.04784269999982,69.49072110000088,70.98963850000109,space,1,0.838943200000358,0.17460879999998724,,,,,,,,,,,,,,5 2BACK,001,2026-05-03_05h53.36.979,untitled,,2025.1.1,60.02433386528198,2026-05-03 05h53.51.730437 +0200,
F,8.wav,0,0,0,5,5,0,,,,,bloc_b.xlsx,None,1,,,,,,,,,,,,0,0,0,0,0,0,0,2,0,5,5,5,71.00616560000162,,,,,,,,,,,,,,,,,,,,,,,,,,,,,,,,,,,,,70.99093580000044,71.00616560000162,71.48902220000127,72.98783540000113,None,1,,,72.98770409999997,,,,,,,,,,,,,5 2BACK,001,2026-05-03_05h53.36.979,untitled,,2025.1.1,60.02433386528198,2026-05-03 05h53.51.730437 +0200,
V,5.wav,0,0,0,6,6,0,,,,,bloc_b.xlsx,None,1,,,,,,,,,,,,0,0,0,0,0,0,0,2,0,6,6,6,73.00469970000086,,,,,,,,,,,,,,,,,,,,,,,,,,,,,,,,,,,,,72.9894561000001,73.00469970000086,73.48747550000007,74.9865576000011,None,1,,,,,,,,,,,,,,,,5 2BACK,001,2026-05-03_05h53.36.979,untitled,,2025.1.1,60.02433386528198,2026-05-03 05h53.51.730437 +0200,
F,7.wav,1,0,0,7,7,0,,,,,bloc_b.xlsx,space,1,0.8423208999993221,0.15180360000158544,,,,,,,,,,0,0,0,0,0,0,0,2,0,7,7,7,75.00293580000107,,,,,,,,,,,,,,,,,,,,,,,,,,,,,,,,,,,,,74.98797139999988,75.00293580000107,75.48583950000102,76.98472370000127,space,1,0.8423208999993221,0.15180360000158544,,,,,,,,,,,,,,5 2BACK,001,2026-05-03_05h53.36.979,untitled,,2025.1.1,60.02433386528198,2026-05-03 05h53.51.730437 +0200,
P,2.wav,0,0,0,8,8,0,,,,,bloc_b.xlsx,None,1,,,,,,,,,,,,0,0,0,0,0,0,0,2,0,8,8,8,77.00119369999993,,,,,,,,,,,,,,,,,,,,,,,,,,,,,,,,,,,,,76.98691440000039,77.00119369999993,77.48397240000122,78.98305330000039,None,1,,,78.98290420000012,,,,,,,,,,,,,5 2BACK,001,2026-05-03_05h53.36.979,untitled,,2025.1.1,60.02433386528198,2026-05-03 05h53.51.730437 +0200,
N,7.wav,0,1,0,9,9,0,,,,,bloc_b.xlsx,None,1,,,,,,,,,,,,0,0,0,0,0,0,0,2,0,9,9,9,78.99966020000102,,,,,,,,,,,,,,,,,,,,,,,,,,,,,,,,,,,,,78.98504830000093,78.99966020000102,79.48226020000038,80.99808819999998,None,1,,,80.99793620000128,,,,,,,,,,,,,5 2BACK,001,2026-05-03_05h53.36.979,untitled,,2025.1.1,60.02433386528198,2026-05-03 05h53.51.730437 +0200,
C,5.wav,0,0,0,10,10,0,,,,,bloc_b.xlsx,None,1,,,,,,,,,,,,0,0,0,0,0,0,0,2,0,10,10,10,81.01462270000047,,,,,,,,,,,,,,,,,,,,,,,,,,,,,,,,,,,,,80.99943160000112,81.01462270000047,81.49759200000153,82.99661590000142,None,1,,,,,,,,,,,,,,,,5 2BACK,001,2026-05-03_05h53.36.979,untitled,,2025.1.1,60.02433386528198,2026-05-03 05h53.51.730437 +0200,
L,6.wav,0,0,0,11,11,0,,,,,bloc_b.xlsx,None,1,,,,,,,,,,,,0,0,0,0,0,0,0,2,0,11,11,11,83.01288460000069,,,,,,,,,,,,,,,,,,,,,,,,,,,,,,,,,,,,,82.99812040000143,83.01288460000069,83.49598220000007,84.9950215000008,None,1,,,,,,,,,,,,,,,,5 2BACK,001,2026-05-03_05h53.36.979,untitled,,2025.1.1,60.02433386528198,2026-05-03 05h53.51.730437 +0200,
E,1.wav,0,0,0,12,12,0,,,,,bloc_b.xlsx,None,1,,,,,,,,,,,,0,0,0,0,0,0,0,2,0,12,12,12,85.01127919999999,,,,,,,,,,,,,,,,,,,,,,,,,,,,,,,,,,,,,84.99934270000085,85.01127919999999,85.49421070000062,86.99348460000147,None,1,,,,,,,,,,,,,,,,5 2BACK,001,2026-05-03_05h53.36.979,untitled,,2025.1.1,60.02433386528198,2026-05-03 05h53.51.730437 +0200,
K,5.wav,0,0,0,13,13,0,,,,,bloc_b.xlsx,None,1,,,,,,,,,,,,0,0,0,0,0,0,0,2,0,13,13,13,87.00971089999985,,,,,,,,,,,,,,,,,,,,,,,,,,,,,,,,,,,,,86.99822459999996,87.00971089999985,87.49273929999981,88.99162500000057,None,1,,,,,,,,,,,,,,,,5 2BACK,001,2026-05-03_05h53.36.979,untitled,,2025.1.1,60.02433386528198,2026-05-03 05h53.51.730437 +0200,
E,1.wav,1,1,1,14,14,0,,,,,bloc_b.xlsx,space,1,0.8775700999995024,0.15977679999923566,,,,,,,,,,0,0,0,0,0,0,0,2,0,14,14,14,89.00809170000139,,,,,,,,,,,,,,,,,,,,,,,,,,,,,,,,,,,,,88.99327260000064,89.00809170000139,89.49111570000059,90.99009790000127,space,1,0.8775700999995024,0.15977679999923566,,,,,,,,,,,,,,5 2BACK,001,2026-05-03_05h53.36.979,untitled,,2025.1.1,60.02433386528198,2026-05-03 05h53.51.730437 +0200,
U,7.wav,0,0,0,15,15,0,,,,,bloc_b.xlsx,None,1,,,,,,,,,,,,0,0,0,0,0,0,0,2,0,15,15,15,91.00650440000027,,,,,,,,,,,,,,,,,,,,,,,,,,,,,,,,,,,,,90.99162340000112,91.00650440000027,91.4894533000006,92.98859059999995,None,1,,,,,,,,,,,,,,,,5 2BACK,001,2026-05-03_05h53.36.979,untitled,,2025.1.1,60.02433386528198,2026-05-03 05h53.51.730437 +0200,
X,3.wav,0,0,0,16,16,0,,,,,bloc_b.xlsx,None,1,,,,,,,,,,,,0,0,0,0,0,0,0,2,0,16,16,16,93.00490150000041,,,,,,,,,,,,,,,,,,,,,,,,,,,,,,,,,,,,,92.99045910000132,93.00490150000041,93.48769240000001,94.98671540000032,None,1,,,,,,,,,,,,,,,,5 2BACK,001,2026-05-03_05h53.36.979,untitled,,2025.1.1,60.02433386528198,2026-05-03 05h53.51.730437 +0200,
L,4.wav,0,0,0,17,17,0,,,,,bloc_b.xlsx,None,1,,,,,,,,,,,,0,0,0,0,0,0,0,2,0,17,17,17,95.0031768000008,,,,,,,,,,,,,,,,,,,,,,,,,,,,,,,,,,,,,94.9880247000001,95.0031768000008,95.48616080000102,96.98527970000032,None,1,,,,,,,,,,,,,,,,5 2BACK,001,2026-05-03_05h53.36.979,untitled,,2025.1.1,60.02433386528198,2026-05-03 05h53.51.730437 +0200,
B,3.wav,0,1,0,18,18,0,,,,,bloc_b.xlsx,None,1,,,,,,,,,,,,0,0,0,0,0,0,0,2,0,18,18,18,97.00166680000075,,,,,,,,,,,,,,,,,,,,,,,,,,,,,,,,,,,,,96.98655719999988,97.00166680000075,97.48444520000157,98.98329809999996,None,1,,,,,,,,,,,,,,,,5 2BACK,001,2026-05-03_05h53.36.979,untitled,,2025.1.1,60.02433386528198,2026-05-03 05h53.51.730437 +0200,
L,5.wav,1,0,0,19,19,0,,,,,bloc_b.xlsx,space,1,1.0521409000011772,0.13612689999899885,,,,,,,,,,0,0,0,0,0,0,0,2,0,19,19,19,98.99982290000116,,,,,,,,,,,,,,,,,,,,,,,,,,,,,,,,,,,,,98.98470140000063,98.99982290000116,99.48288980000143,100.99817630000143,space,1,1.0521409000011772,0.13612689999899885,100.99808650000159,,,,,,,,,,,,,5 2BACK,001,2026-05-03_05h53.36.979,untitled,,2025.1.1,60.02433386528198,2026-05-03 05h53.51.730437 +0200,
Q,2.wav,0,0,0,20,20,0,,,,,bloc_b.xlsx,None,1,,,,,,,,,,,,0,0,0,0,0,0,0,2,0,20,20,20,101.01469960000031,,,,,,,,,,,,,,,,,,,,,,,,,,,,,,,,,,,,,101.00209910000012,101.01469960000031,101.48112430000037,102.99668209999982,None,1,,,102.99657509999997,,,,,,,,,,,,,5 2BACK,001,2026-05-03_05h53.36.979,untitled,,2025.1.1,60.02433386528198,2026-05-03 05h53.51.730437 +0200,
B,7.wav,0,0,0,21,21,0,,,,,bloc_b.xlsx,None,1,,,,,,,,,,,,0,0,0,0,0,0,0,2,0,21,21,21,103.01318429999992,,,,,,,,,,,,,,,,,,,,,,,,,,,,,,,,,,,,,102.99810780000007,103.01318429999992,103.49617410000064,104.9949912000011,None,1,,,,,,,,,,,,,,,,5 2BACK,001,2026-05-03_05h53.36.979,untitled,,2025.1.1,60.02433386528198,2026-05-03 05h53.51.730437 +0200,
W,1.wav,0,0,0,22,22,0,,,,,bloc_b.xlsx,None,1,,,,,,,,,,,,0,0,0,0,0,0,0,2,0,22,22,22,105.01145570000153,,,,,,,,,,,,,,,,,,,,,,,,,,,,,,,,,,,,,104.99920730000122,105.01145570000153,105.49456850000024,106.99323910000021,None,1,,,,,,,,,,,,,,,,5 2BACK,001,2026-05-03_05h53.36.979,untitled,,2025.1.1,60.02433386528198,2026-05-03 05h53.51.730437 +0200,
B,5.wav,1,0,0,23,23,0,,,,,bloc_b.xlsx,space,1,0.9545925000002171,0.14408430000003136,,,,,,,,,,0,0,0,0,0,0,0,2,0,23,23,23,107.00980380000146,,,,,,,,,,,,,,,,,,,,,,,,,,,,,,,,,,,,,106.99447169999985,107.00980380000146,107.49288760000127,108.99192720000065,space,1,0.9545925000002171,0.14408430000003136,,,,,,,,,,,,,,5 2BACK,001,2026-05-03_05h53.36.979,untitled,,2025.1.1,60.02433386528198,2026-05-03 05h53.51.730437 +0200,
P,1.wav,0,1,0,24,24,0,,,,,bloc_b.xlsx,None,1,,,,,,,,,,,,0,0,0,0,0,0,0,2,0,24,24,24,109.00833740000053,,,,,,,,,,,,,,,,,,,,,,,,,,,,,,,,,,,,,108.99367910000001,109.00833740000053,109.49124070000107,110.9901043000009,None,1,,,,,,,,,,,,,,,,5 2BACK,001,2026-05-03_05h53.36.979,untitled,,2025.1.1,60.02433386528198,2026-05-03 05h53.51.730437 +0200,
L,7.wav,0,0,0,25,25,0,,,,,bloc_b.xlsx,None,1,,,,,,,,,,,,0,0,0,0,0,0,0,2,0,25,25,25,111.00663920000079,,,,,,,,,,,,,,,,,,,,,,,,,,,,,,,,,,,,,110.99153890000161,111.00663920000079,111.48969880000004,112.9887329000012,None,1,,,,,,,,,,,,,,,,5 2BACK,001,2026-05-03_05h53.36.979,untitled,,2025.1.1,60.02433386528198,2026-05-03 05h53.51.730437 +0200,
D,6.wav,0,0,0,26,26,0,,,,,bloc_b.xlsx,None,1,,,,,,,,,,,,0,0,0,0,0,0,0,2,0,26,26,26,113.00507310000103,,,,,,,,,,,,,,,,,,,,,,,,,,,,,,,,,,,,,112.99013530000047,113.00507310000103,113.4880503000004,114.9869133000011,None,1,,,,,,,,,,,,,,,,5 2BACK,001,2026-05-03_05h53.36.979,untitled,,2025.1.1,60.02433386528198,2026-05-03 05h53.51.730437 +0200,
S,3.wav,0,0,0,27,27,0,,,,,bloc_b.xlsx,None,1,,,,,,,,,,,,0,0,0,0,0,0,0,2,0,27,27,27,115.00342810000075,,,,,,,,,,,,,,,,,,,,,,,,,,,,,,,,,,,,,114.98818329999995,115.00342810000075,115.48633390000032,116.98542830000042,None,1,,,,,,,,,,,,,,,,5 2BACK,001,2026-05-03_05h53.36.979,untitled,,2025.1.1,60.02433386528198,2026-05-03 05h53.51.730437 +0200,
W,8.wav,0,0,0,28,28,0,,,,,bloc_b.xlsx,None,1,,,,,,,,,,,,0,0,0,0,0,0,0,2,0,28,28,28,117.00168570000096,,,,,,,,,,,,,,,,,,,,,,,,,,,,,,,,,,,,,116.98714550000113,117.00168570000096,117.48472500000025,118.9837606000001,None,1,,,,,,,,,,,,,,,,5 2BACK,001,2026-05-03_05h53.36.979,untitled,,2025.1.1,60.02433386528198,2026-05-03 05h53.51.730437 +0200,
L,3.wav,0,1,0,29,29,0,,,,,bloc_b.xlsx,None,1,,,,,,,,,,,,0,0,0,0,0,0,0,2,0,29,29,29,119.0001527000004,,,,,,,,,,,,,,,,,,,,,,,,,,,,,,,,,,,,,118.98530490000121,119.0001527000004,119.48300689999996,120.98209070000121,None,1,,,,,,,,,,,,,,,,5 2BACK,001,2026-05-03_05h53.36.979,untitled,,2025.1.1,60.02433386528198,2026-05-03 05h53.51.730437 +0200,
W,6.wav,1,0,0,30,30,0,,,,,bloc_b.xlsx,space,1,1.1208133999989514,0.1499937000007776,,,,,,,,,,0,0,0,0,0,0,0,2,0,30,30,30,120.99843930000134,,,,,,,,,,,,,,,,,,,,,,,,,,,,,,,,,,,,,120.98376030000145,120.99843930000134,121.48131980000107,122.99696910000057,space,1,1.1208133999989514,0.1499937000007776,122.99677840000004,,,,,,,,,,,,,5 2BACK,001,2026-05-03_05h53.36.979,untitled,,2025.1.1,60.02433386528198,2026-05-03 05h53.51.730437 +0200,
H,1.wav,0,0,0,31,31,0,,,,,bloc_b.xlsx,None,1,,,,,,,,,,,,0,0,0,0,0,0,0,2,0,31,31,31,123.0134790000011,,,,,,,,,,,,,,,,,,,,,,,,,,,,,,,,,,,,,122.9983957000004,123.0134790000011,123.49643509999987,124.9953802,None,1,,,,,,,,,,,,,,,,5 2BACK,001,2026-05-03_05h53.36.979,untitled,,2025.1.1,60.02433386528198,2026-05-03 05h53.51.730437 +0200,
Y,4.wav,0,0,0,32,32,0,,,,,bloc_b.xlsx,None,1,,,,,,,,,,,,0,0,0,0,0,0,0,2,0,32,32,32,125.01177950000056,,,,,,,,,,,,,,,,,,,,,,,,,,,,,,,,,,,,,124.9993813000001,125.01177950000056,125.49452720000045,126.9936617000003,None,1,,,126.99353690000135,,,,,,,,,,,,,5 2BACK,001,2026-05-03_05h53.36.979,untitled,,2025.1.1,60.02433386528198,2026-05-03 05h53.51.730437 +0200,
R,1.wav,0,1,0,33,33,0,,,,,bloc_b.xlsx,None,1,,,,,,,,,,,,0,0,0,0,0,0,0,2,0,33,33,33,127.01020980000067,,,,,,,,,,,,,,,,,,,,,,,,,,,,,,,,,,,,,126.99490100000003,127.01020980000067,127.49298950000048,128.992005600001,None,1,,,,,,,,,,,,,,,,5 2BACK,001,2026-05-03_05h53.36.979,untitled,,2025.1.1,60.02433386528198,2026-05-03 05h53.51.730437 +0200,
J,8.wav,0,0,0,34,34,0,,,,,bloc_b.xlsx,None,1,,,,,,,,,,,,0,0,0,0,0,0,0,2,0,34,34,34,129.00844099999995,,,,,,,,,,,,,,,,,,,,,,,,,,,,,,,,,,,,,128.99348310000096,129.00844099999995,129.49145130000034,130.99033770000096,None,1,,,,,,,,,,,,,,,,5 2BACK,001,2026-05-03_05h53.36.979,untitled,,2025.1.1,60.02433386528198,2026-05-03 05h53.51.730437 +0200,
R,5.wav,1,0,0,35,35,0,,,,,bloc_b.xlsx,space,1,1.3589750999999524,0.16107300000112446,,,,,,,,,,0,0,0,0,0,0,0,2,0,35,35,35,131.00693540000066,,,,,,,,,,,,,,,,,,,,,,,,,,,,,,,,,,,,,130.9916677000001,131.00693540000066,131.48979480000162,132.98869110000123,space,1,1.3589750999999524,0.16107300000112446,,,,,,,,,,,,,,5 2BACK,001,2026-05-03_05h53.36.979,untitled,,2025.1.1,60.02433386528198,2026-05-03 05h53.51.730437 +0200,
S,2.wav,0,0,0,36,36,0,,,,,bloc_b.xlsx,None,1,,,,,,,,,,,,0,0,0,0,0,0,0,2,0,36,36,36,133.00529180000012,,,,,,,,,,,,,,,,,,,,,,,,,,,,,,,,,,,,,132.99000909999995,133.00529180000012,133.4881019000004,134.98730370000158,None,1,,,,,,,,,,,,,,,,5 2BACK,001,2026-05-03_05h53.36.979,untitled,,2025.1.1,60.02433386528198,2026-05-03 05h53.51.730437 +0200,
W,5.wav,0,1,0,37,37,0,,,,,bloc_b.xlsx,None,1,,,,,,,,,,,,0,0,0,0,0,0,0,2,0,37,37,37,135.00367360000018,,,,,,,,,,,,,,,,,,,,,,,,,,,,,,,,,,,,,134.98862180000106,135.00367360000018,135.48646890000055,136.9855271000015,None,1,,,,,,,,,,,,,,,,5 2BACK,001,2026-05-03_05h53.36.979,untitled,,2025.1.1,60.02433386528198,2026-05-03 05h53.51.730437 +0200,
S,8.wav,1,0,0,38,38,0,,,,,bloc_b.xlsx,space,1,0.812051099999735,0.15543950000028417,,,,,,,,,,0,0,0,0,0,0,0,2,0,38,38,38,137.0019228000001,,,,,,,,,,,,,,,,,,,,,,,,,,,,,,,,,,,,,136.9872017000016,137.0019228000001,137.48479920000136,138.98387770000045,space,1,0.812051099999735,0.15543950000028417,,,,,,,,,,,,,,5 2BACK,001,2026-05-03_05h53.36.979,untitled,,2025.1.1,60.02433386528198,2026-05-03 05h53.51.730437 +0200,
V,1.wav,0,0,0,39,39,0,,,,,bloc_b.xlsx,None,1,,,,,,,,,,,,0,0,0,0,0,0,0,2,0,39,39,39,139.00034300000152,,,,,,,,,,,,,,,,,,,,,,,,,,,,,,,,,,,,,138.98534699999982,139.00034300000152,139.48290780000025,140.98210800000015,None,1,,,,,,,,,,,,,,,,5 2BACK,001,2026-05-03_05h53.36.979,untitled,,2025.1.1,60.02433386528198,2026-05-03 05h53.51.730437 +0200,
M,4.wav,0,0,0,40,40,0,,,,,bloc_b.xlsx,None,1,,,,,,,,,,,,0,0,0,0,0,0,0,2,0,40,40,40,140.9985355000008,,,,,,,,,,,,,,,,,,,,,,,,,,,,,,,,,,,,,140.98343390000082,140.9985355000008,141.48156740000013,142.99738270000125,None,1,,,142.99702609999986,,,,,,,,,,,,,5 2BACK,001,2026-05-03_05h53.36.979,untitled,,2025.1.1,60.02433386528198,2026-05-03 05h53.51.730437 +0200,
H,5.wav,0,0,0,41,41,0,,,,,bloc_b.xlsx,None,1,,,,,,,,,,,,0,0,0,0,0,0,0,2,0,41,41,41,143.01353170000039,,,,,,,,,,,,,,,,,,,,,,,,,,,,,,,,,,,,,142.9994426000012,143.01353170000039,143.49665900000036,144.9955759000004,None,1,,,,,,,,,,,,,,,,5 2BACK,001,2026-05-03_05h53.36.979,untitled,,2025.1.1,60.02433386528198,2026-05-03 05h53.51.730437 +0200,
S,2.wav,0,0,0,42,42,0,,,,,bloc_b.xlsx,None,1,,,,,,,,,,,,0,0,0,0,0,0,0,2,0,42,42,42,145.01207980000072,,,,,,,,,,,,,,,,,,,,,,,,,,,,,,,,,,,,,144.99716590000025,145.01207980000072,145.49501229999987,146.99396330000127,None,1,,,,,,,,,,,,,,,,5 2BACK,001,2026-05-03_05h53.36.979,untitled,,2025.1.1,60.02433386528198,2026-05-03 05h53.51.730437 +0200,
H,5.wav,1,1,1,43,43,0,,,,,bloc_b.xlsx,space,1,0.7888481000009051,0.15350000000034925,,,,,,,,,,0,0,0,0,0,0,0,2,0,43,43,43,147.0103102000012,,,,,,,,,,,,,,,,,,,,,,,,,,,,,,,,,,,,,146.995254200001,147.0103102000012,147.4934041000015,148.99246510000012,space,1,0.7888481000009051,0.15350000000034925,,,,,,,,,,,,,,5 2BACK,001,2026-05-03_05h53.36.979,untitled,,2025.1.1,60.02433386528198,2026-05-03 05h53.51.730437 +0200,
U,6.wav,0,0,0,44,44,0,,,,,bloc_b.xlsx,None,1,,,,,,,,,,,,0,0,0,0,0,0,0,2,0,44,44,44,149.0086136000009,,,,,,,,,,,,,,,,,,,,,,,,,,,,,,,,,,,,,148.99377630000163,149.0086136000009,149.4917430000005,150.99075390000144,None,1,,,,,,,,,,,,,,,,5 2BACK,001,2026-05-03_05h53.36.979,untitled,,2025.1.1,60.02433386528198,2026-05-03 05h53.51.730437 +0200,
W,3.wav,0,0,0,45,45,0,,,,,bloc_b.xlsx,None,1,,,,,,,,,,,,0,0,0,0,0,0,0,2,0,45,45,45,151.00714850000077,,,,,,,,,,,,,,,,,,,,,,,,,,,,,,,,,,,,,150.99202820000028,151.00714850000077,151.48996830000033,152.98911340000086,None,1,,,,,,,,,,,,,,,,5 2BACK,001,2026-05-03_05h53.36.979,untitled,,2025.1.1,60.02433386528198,2026-05-03 05h53.51.730437 +0200,
J,6.wav,0,1,0,46,46,0,,,,,bloc_b.xlsx,None,1,,,,,,,,,,,,0,0,0,0,0,0,0,2,0,46,46,46,153.00541479999993,,,,,,,,,,,,,,,,,,,,,,,,,,,,,,,,,,,,,152.99051070000132,153.00541479999993,153.4885215000013,154.9874886000016,None,1,,,,,,,,,,,,,,,,5 2BACK,001,2026-05-03_05h53.36.979,untitled,,2025.1.1,60.02433386528198,2026-05-03 05h53.51.730437 +0200,
M,5.wav,0,0,0,47,47,0,,,,,bloc_b.xlsx,None,1,,,,,,,,,,,,0,0,0,0,0,0,0,2,0,47,47,47,155.003773800001,,,,,,,,,,,,,,,,,,,,,,,,,,,,,,,,,,,,,154.98902740000085,155.003773800001,155.48676210000122,156.98600480000096,None,1,,,,,,,,,,,,,,,,5 2BACK,001,2026-05-03_05h53.36.979,untitled,,2025.1.1,60.02433386528198,2026-05-03 05h53.51.730437 +0200,
J,1.wav,1,0,0,48,48,0,,,,,bloc_b.xlsx,None,0,,,,,,,,,,,,0,0,0,0,0,0,0,2,0,48,48,48,157.0019753000015,,,,,,,,,,,,,,,,,,,,,,,,,,,,,,,,,,,,,156.9878005999999,157.0019753000015,157.48518200000035,158.98411040000065,None,0,,,,,,,,,,,,,,,,5 2BACK,001,2026-05-03_05h53.36.979,untitled,,2025.1.1,60.02433386528198,2026-05-03 05h53.51.730437 +0200,
B,7.wav,0,0,0,49,49,0,,,,,bloc_b.xlsx,None,1,,,,,,,,,,,,0,0,0,0,0,0,0,2,0,49,49,49,159.00039990000005,,,,,,,,,,,,,,,,,,,,,,,,,,,,,,,,,,,,,158.98557690000052,159.00039990000005,159.4834762999999,160.9823264000006,None,1,,,,,,,,,,,,,,,,5 2BACK,001,2026-05-03_05h53.36.979,untitled,,2025.1.1,60.02433386528198,2026-05-03 05h53.51.730437 +0200,
,,,,,0,0,0,,,,,bloc_b.xlsx,,,,,,,,,,,,,,0,0,0,0,0,0,0,2,,,,,,,,,,,,,,,,,,,,,,,,,,,,,,,,,,,,,,,,,,,,,,,,,,,,,,,,,,,,,,,5 2BACK,001,2026-05-03_05h53.36.979,untitled,,2025.1.1,60.02433386528198,2026-05-03 05h53.51.730437 +0200,
Z,6.wav,0,0,0,0,0,0,,,,,bloc_c.xlsx,None,1,,,,,,,,,,,,0,0,0,0,0,1,1,1,0,0,0,0,161.00046480000128,,,,,,,,,,,,,,,,,,,,,,,,,,,,,,,,,,,,,160.9993617,161.00046480000128,161.48181450000084,162.99757920000047,None,1,,,162.99718900000153,,,,,,,,,,,,,5 2BACK,001,2026-05-03_05h53.36.979,untitled,,2025.1.1,60.02433386528198,2026-05-03 05h53.51.730437 +0200,
M,7.wav,0,0,0,1,1,0,,,,,bloc_c.xlsx,None,1,,,,,,,,,,,,0,0,0,0,0,1,1,1,0,1,1,1,163.01387050000085,,,,,,,,,,,,,,,,,,,,,,,,,,,,,,,,,,,,,162.99921890000041,163.01387050000085,163.49678500000118,164.99569320000046,None,1,,,,,,,,,,,,,,,,5 2BACK,001,2026-05-03_05h53.36.979,untitled,,2025.1.1,60.02433386528198,2026-05-03 05h53.51.730437 +0200,
Z,1.wav,1,0,0,2,2,0,,,,,bloc_c.xlsx,space,1,0.980355800000325,0.17030119999981252,,,,,,,,,,0,0,0,0,0,1,1,1,0,2,2,2,165.01211610000064,,,,,,,,,,,,,,,,,,,,,,,,,,,,,,,,,,,,,164.99794340000153,165.01211610000064,165.49523340000087,166.99414010000146,space,1,0.980355800000325,0.17030119999981252,,,,,,,,,,,,,,5 2BACK,001,2026-05-03_05h53.36.979,untitled,,2025.1.1,60.02433386528198,2026-05-03 05h53.51.730437 +0200,
E,8.wav,0,0,0,3,3,0,,,,,bloc_c.xlsx,None,1,,,,,,,,,,,,0,0,0,0,0,1,1,1,0,3,3,3,167.01048230000015,,,,,,,,,,,,,,,,,,,,,,,,,,,,,,,,,,,,,166.99572500000068,167.01048230000015,167.4933632000011,168.9927717999999,None,1,,,,,,,,,,,,,,,,5 2BACK,001,2026-05-03_05h53.36.979,untitled,,2025.1.1,60.02433386528198,2026-05-03 05h53.51.730437 +0200,
R,3.wav,0,0,0,4,4,0,,,,,bloc_c.xlsx,None,1,,,,,,,,,,,,0,0,0,0,0,1,1,1,0,4,4,4,169.0088437000013,,,,,,,,,,,,,,,,,,,,,,,,,,,,,,,,,,,,,168.99413580000146,169.0088437000013,169.49199840000074,170.99081770000157,None,1,,,,,,,,,,,,,,,,5 2BACK,001,2026-05-03_05h53.36.979,untitled,,2025.1.1,60.02433386528198,2026-05-03 05h53.51.730437 +0200,
J,8.wav,0,1,0,5,5,0,,,,,bloc_c.xlsx,None,1,,,,,,,,,,,,0,0,0,0,0,1,1,1,0,5,5,5,171.0072598000006,,,,,,,,,,,,,,,,,,,,,,,,,,,,,,,,,,,,,170.99235650000082,171.0072598000006,171.49035350000122,172.98939200000132,None,1,,,,,,,,,,,,,,,,5 2BACK,001,2026-05-03_05h53.36.979,untitled,,2025.1.1,60.02433386528198,2026-05-03 05h53.51.730437 +0200,
R,5.wav,1,0,0,6,6,0,,,,,bloc_c.xlsx,space,1,1.0980163000003813,0.15539979999994102,,,,,,,,,,0,0,0,0,0,1,1,1,0,6,6,6,173.00571440000022,,,,,,,,,,,,,,,,,,,,,,,,,,,,,,,,,,,,,172.99067620000096,173.00571440000022,173.48877170000014,174.9875546000003,space,1,1.0980163000003813,0.15539979999994102,,,,,,,,,,,,,,5 2BACK,001,2026-05-03_05h53.36.979,untitled,,2025.1.1,60.02433386528198,2026-05-03 05h53.51.730437 +0200,
Q,2.wav,0,0,0,7,7,0,,,,,bloc_c.xlsx,None,1,,,,,,,,,,,,0,0,0,0,0,1,1,1,0,7,7,7,175.00394500000039,,,,,,,,,,,,,,,,,,,,,,,,,,,,,,,,,,,,,174.98935410000013,175.00394500000039,175.4870589000002,176.98603340000045,None,1,,,,,,,,,,,,,,,,5 2BACK,001,2026-05-03_05h53.36.979,untitled,,2025.1.1,60.02433386528198,2026-05-03 05h53.51.730437 +0200,
H,6.wav,0,0,0,8,8,0,,,,,bloc_c.xlsx,None,1,,,,,,,,,,,,0,0,0,0,0,1,1,1,0,8,8,8,177.00231730000087,,,,,,,,,,,,,,,,,,,,,,,,,,,,,,,,,,,,,176.9877972000013,177.00231730000087,177.4852451000006,178.98425959999986,None,1,,,,,,,,,,,,,,,,5 2BACK,001,2026-05-03_05h53.36.979,untitled,,2025.1.1,60.02433386528198,2026-05-03 05h53.51.730437 +0200,
U,2.wav,0,1,0,9,9,0,,,,,bloc_c.xlsx,None,1,,,,,,,,,,,,0,0,0,0,0,1,1,1,0,9,9,9,179.00065990000076,,,,,,,,,,,,,,,,,,,,,,,,,,,,,,,,,,,,,178.98583670000153,179.00065990000076,179.48382050000146,180.98260610000034,None,1,,,,,,,,,,,,,,,,5 2BACK,001,2026-05-03_05h53.36.979,untitled,,2025.1.1,60.02433386528198,2026-05-03 05h53.51.730437 +0200,
H,3.wav,1,0,0,10,10,0,,,,,bloc_c.xlsx,space,1,0.9514806000006502,0.15940760000012233,,,,,,,,,,0,0,0,0,0,1,1,1,0,10,10,10,180.99903190000077,,,,,,,,,,,,,,,,,,,,,,,,,,,,,,,,,,,,,180.9847688000009,180.99903190000077,181.4820800000016,182.9978194000014,space,1,0.9514806000006502,0.15940760000012233,182.99744190000092,,,,,,,,,,,,,5 2BACK,001,2026-05-03_05h53.36.979,untitled,,2025.1.1,60.02433386528198,2026-05-03 05h53.51.730437 +0200,
Z,6.wav,0,0,0,11,11,0,,,,,bloc_c.xlsx,None,1,,,,,,,,,,,,0,0,0,0,0,1,1,1,0,11,11,11,183.01412410000012,,,,,,,,,,,,,,,,,,,,,,,,,,,,,,,,,,,,,182.9991168000015,183.01412410000012,183.49696399999993,184.99588940000103,None,1,,,,,,,,,,,,,,,,5 2BACK,001,2026-05-03_05h53.36.979,untitled,,2025.1.1,60.02433386528198,2026-05-03 05h53.51.730437 +0200,
Q,2.wav,0,0,0,12,12,0,,,,,bloc_c.xlsx,None,1,,,,,,,,,,,,0,0,0,0,0,1,1,1,0,12,12,12,185.01258580000103,,,,,,,,,,,,,,,,,,,,,,,,,,,,,,,,,,,,,184.99731630000133,185.01258580000103,185.49532160000126,186.9942028000005,None,1,,,186.9940757000004,,,,,,,,,,,,,5 2BACK,001,2026-05-03_05h53.36.979,untitled,,2025.1.1,60.02433386528198,2026-05-03 05h53.51.730437 +0200,
Z,1.wav,1,0,0,13,13,0,,,,,bloc_c.xlsx,space,1,0.8760852999985218,0.1709129999999277,,,,,,,,,,0,0,0,0,0,1,1,1,0,13,13,13,187.01069930000085,,,,,,,,,,,,,,,,,,,,,,,,,,,,,,,,,,,,,186.99600170000122,187.01069930000085,187.49348720000125,188.99261710000064,space,1,0.8760852999985218,0.1709129999999277,,,,,,,,,,,,,,5 2BACK,001,2026-05-03_05h53.36.979,untitled,,2025.1.1,60.02433386528198,2026-05-03 05h53.51.730437 +0200,
N,2.wav,0,1,0,14,14,0,,,,,bloc_c.xlsx,None,1,,,,,,,,,,,,0,0,0,0,0,1,1,1,0,14,14,14,189.00911480000104,,,,,,,,,,,,,,,,,,,,,,,,,,,,,,,,,,,,,188.99398120000114,189.00911480000104,189.49203900000066,190.99123930000133,None,1,,,,,,,,,,,,,,,,5 2BACK,001,2026-05-03_05h53.36.979,untitled,,2025.1.1,60.02433386528198,2026-05-03 05h53.51.730437 +0200,
U,4.wav,0,0,0,15,15,0,,,,,bloc_c.xlsx,None,1,,,,,,,,,,,,0,0,0,0,0,1,1,1,0,15,15,15,191.00752400000056,,,,,,,,,,,,,,,,,,,,,,,,,,,,,,,,,,,,,190.99268760000086,191.00752400000056,191.49026779999986,192.98951300000044,None,1,,,192.98926949999986,,,,,,,,,,,,,5 2BACK,001,2026-05-03_05h53.36.979,untitled,,2025.1.1,60.02433386528198,2026-05-03 05h53.51.730437 +0200,
G,1.wav,0,0,0,16,16,0,,,,,bloc_c.xlsx,None,1,,,,,,,,,,,,0,0,0,0,0,1,1,1,0,16,16,16,193.00598340000033,,,,,,,,,,,,,,,,,,,,,,,,,,,,,,,,,,,,,192.9907901000006,193.00598340000033,193.4888547999999,194.98789060000126,None,1,,,,,,,,,,,,,,,,5 2BACK,001,2026-05-03_05h53.36.979,untitled,,2025.1.1,60.02433386528198,2026-05-03 05h53.51.730437 +0200,
P,5.wav,0,0,0,17,17,0,,,,,bloc_c.xlsx,None,1,,,,,,,,,,,,0,0,0,0,0,1,1,1,0,17,17,17,195.00427410000157,,,,,,,,,,,,,,,,,,,,,,,,,,,,,,,,,,,,,194.98940260000018,195.00427410000157,195.48711880000155,196.98605430000134,None,1,,,,,,,,,,,,,,,,5 2BACK,001,2026-05-03_05h53.36.979,untitled,,2025.1.1,60.02433386528198,2026-05-03 05h53.51.730437 +0200,
G,1.wav,1,1,1,18,18,0,,,,,bloc_c.xlsx,space,1,0.8193602000010287,0.1604931999991095,,,,,,,,,,0,0,0,0,0,1,1,1,0,18,18,18,197.00276310000118,,,,,,,,,,,,,,,,,,,,,,,,,,,,,,,,,,,,,196.98764690000098,197.00276310000118,197.48521380000057,198.9845046999999,space,1,0.8193602000010287,0.1604931999991095,198.98431400000118,,,,,,,,,,,,,5 2BACK,001,2026-05-03_05h53.36.979,untitled,,2025.1.1,60.02433386528198,2026-05-03 05h53.51.730437 +0200,
C,2.wav,0,0,0,19,19,0,,,,,bloc_c.xlsx,None,1,,,,,,,,,,,,0,0,0,0,0,1,1,1,0,19,19,19,199.00101610000092,,,,,,,,,,,,,,,,,,,,,,,,,,,,,,,,,,,,,198.9862890000004,199.00101610000092,199.48385159999998,200.98280380000142,None,1,,,,,,,,,,,,,,,,5 2BACK,001,2026-05-03_05h53.36.979,untitled,,2025.1.1,60.02433386528198,2026-05-03 05h53.51.730437 +0200,
T,3.wav,0,0,0,20,20,0,,,,,bloc_c.xlsx,None,1,,,,,,,,,,,,0,0,0,0,0,1,1,1,0,20,20,20,200.9991181000005,,,,,,,,,,,,,,,,,,,,,,,,,,,,,,,,,,,,,200.98778330000096,200.9991181000005,201.48219340000105,202.99781430000075,None,1,,,202.9976886000004,,,,,,,,,,,,,5 2BACK,001,2026-05-03_05h53.36.979,untitled,,2025.1.1,60.02433386528198,2026-05-03 05h53.51.730437 +0200,
B,2.wav,0,1,0,21,21,0,,,,,bloc_c.xlsx,None,1,,,,,,,,,,,,0,0,0,0,0,1,1,1,0,21,21,21,203.01435730000048,,,,,,,,,,,,,,,,,,,,,,,,,,,,,,,,,,,,,202.9991495000013,203.01435730000048,203.49731860000065,204.99611640000148,None,1,,,,,,,,,,,,,,,,5 2BACK,001,2026-05-03_05h53.36.979,untitled,,2025.1.1,60.02433386528198,2026-05-03 05h53.51.730437 +0200,
L,4.wav,0,0,0,22,22,0,,,,,bloc_c.xlsx,None,1,,,,,,,,,,,,0,0,0,0,0,1,1,1,0,22,22,22,205.01281370000106,,,,,,,,,,,,,,,,,,,,,,,,,,,,,,,,,,,,,204.99742370000058,205.01281370000106,205.49551080000128,206.99434760000076,None,1,,,,,,,,,,,,,,,,5 2BACK,001,2026-05-03_05h53.36.979,untitled,,2025.1.1,60.02433386528198,2026-05-03 05h53.51.730437 +0200,
F,3.wav,0,0,0,23,23,0,,,,,bloc_c.xlsx,None,1,,,,,,,,,,,,0,0,0,0,0,1,1,1,0,23,23,23,207.01106590000018,,,,,,,,,,,,,,,,,,,,,,,,,,,,,,,,,,,,,206.99552980000044,207.01106590000018,207.49396610000076,208.9929873000001,None,1,,,,,,,,,,,,,,,,5 2BACK,001,2026-05-03_05h53.36.979,untitled,,2025.1.1,60.02433386528198,2026-05-03 05h53.51.730437 +0200,
T,4.wav,0,1,0,24,24,0,,,,,bloc_c.xlsx,None,1,,,,,,,,,,,,0,0,0,0,0,1,1,1,0,24,24,24,209.00929290000022,,,,,,,,,,,,,,,,,,,,,,,,,,,,,,,,,,,,,208.99443840000094,209.00929290000022,209.49234810000053,210.99168030000146,None,1,,,,,,,,,,,,,,,,5 2BACK,001,2026-05-03_05h53.36.979,untitled,,2025.1.1,60.02433386528198,2026-05-03 05h53.51.730437 +0200,
F,6.wav,1,0,0,25,25,0,,,,,bloc_c.xlsx,space,1,1.2850824999986799,0.14269550000062736,,,,,,,,,,0,0,0,0,0,1,1,1,0,25,25,25,211.00786880000123,,,,,,,,,,,,,,,,,,,,,,,,,,,,,,,,,,,,,210.99389780000092,211.00786880000123,211.49068770000122,212.9897269000012,space,1,1.2850824999986799,0.14269550000062736,,,,,,,,,,,,,,5 2BACK,001,2026-05-03_05h53.36.979,untitled,,2025.1.1,60.02433386528198,2026-05-03 05h53.51.730437 +0200,
D,5.wav,0,0,0,26,26,0,,,,,bloc_c.xlsx,None,1,,,,,,,,,,,,0,0,0,0,0,1,1,1,0,26,26,26,213.0061327000003,,,,,,,,,,,,,,,,,,,,,,,,,,,,,,,,,,,,,212.99150800000098,213.0061327000003,213.4890873000004,214.98802440000145,None,1,,,,,,,,,,,,,,,,5 2BACK,001,2026-05-03_05h53.36.979,untitled,,2025.1.1,60.02433386528198,2026-05-03 05h53.51.730437 +0200,
G,6.wav,0,1,0,27,27,0,,,,,bloc_c.xlsx,None,1,,,,,,,,,,,,0,0,0,0,0,1,1,1,0,27,27,27,215.00445580000087,,,,,,,,,,,,,,,,,,,,,,,,,,,,,,,,,,,,,214.98932120000063,215.00445580000087,215.48740550000002,216.98621490000005,None,1,,,,,,,,,,,,,,,,5 2BACK,001,2026-05-03_05h53.36.979,untitled,,2025.1.1,60.02433386528198,2026-05-03 05h53.51.730437 +0200,
E,2.wav,0,0,0,28,28,0,,,,,bloc_c.xlsx,None,1,,,,,,,,,,,,0,0,0,0,0,1,1,1,0,28,28,28,217.00286060000144,,,,,,,,,,,,,,,,,,,,,,,,,,,,,,,,,,,,,216.98772120000103,217.00286060000144,217.4857432000008,218.98477660000026,None,1,,,,,,,,,,,,,,,,5 2BACK,001,2026-05-03_05h53.36.979,untitled,,2025.1.1,60.02433386528198,2026-05-03 05h53.51.730437 +0200,
G,8.wav,1,0,0,29,29,0,,,,,bloc_c.xlsx,space,1,1.080513200000496,0.1562884999984817,,,,,,,,,,0,0,0,0,0,1,1,1,0,29,29,29,219.0011540000014,,,,,,,,,,,,,,,,,,,,,,,,,,,,,,,,,,,,,218.98632650000036,219.0011540000014,219.48407990000123,220.9832189000008,space,1,1.080513200000496,0.1562884999984817,,,,,,,,,,,,,,5 2BACK,001,2026-05-03_05h53.36.979,untitled,,2025.1.1,60.02433386528198,2026-05-03 05h53.51.730437 +0200,
S,5.wav,0,0,0,30,30,0,,,,,bloc_c.xlsx,None,1,,,,,,,,,,,,0,0,0,0,0,1,1,1,0,30,30,30,220.99960770000143,,,,,,,,,,,,,,,,,,,,,,,,,,,,,,,,,,,,,220.98472850000144,220.99960770000143,221.48254420000012,222.9981912000003,None,1,,,222.998000900001,,,,,,,,,,,,,5 2BACK,001,2026-05-03_05h53.36.979,untitled,,2025.1.1,60.02433386528198,2026-05-03 05h53.51.730437 +0200,
N,1.wav,0,0,0,31,31,0,,,,,bloc_c.xlsx,None,1,,,,,,,,,,,,0,0,0,0,0,1,1,1,0,31,31,31,223.0145622,,,,,,,,,,,,,,,,,,,,,,,,,,,,,,,,,,,,,222.99969610000153,223.0145622,223.49750500000118,224.99651820000145,None,1,,,,,,,,,,,,,,,,5 2BACK,001,2026-05-03_05h53.36.979,untitled,,2025.1.1,60.02433386528198,2026-05-03 05h53.51.730437 +0200,
V,2.wav,0,0,0,32,32,0,,,,,bloc_c.xlsx,None,1,,,,,,,,,,,,0,0,0,0,0,1,1,1,0,32,32,32,225.01276940000025,,,,,,,,,,,,,,,,,,,,,,,,,,,,,,,,,,,,,224.9980331000006,225.01276940000025,225.49586850000014,226.99490350000087,None,1,,,,,,,,,,,,,,,,5 2BACK,001,2026-05-03_05h53.36.979,untitled,,2025.1.1,60.02433386528198,2026-05-03 05h53.51.730437 +0200,
X,1.wav,0,1,0,33,33,0,,,,,bloc_c.xlsx,None,1,,,,,,,,,,,,0,0,0,0,0,1,1,1,0,33,33,33,227.01112300000023,,,,,,,,,,,,,,,,,,,,,,,,,,,,,,,,,,,,,226.99663430000146,227.01112300000023,227.49401170000056,228.99341880000065,None,1,,,228.99301879999985,,,,,,,,,,,,,5 2BACK,001,2026-05-03_05h53.36.979,untitled,,2025.1.1,60.02433386528198,2026-05-03 05h53.51.730437 +0200,
A,4.wav,0,0,0,34,34,0,,,,,bloc_c.xlsx,None,1,,,,,,,,,,,,0,0,0,0,0,1,1,1,0,34,34,34,229.00941070000044,,,,,,,,,,,,,,,,,,,,,,,,,,,,,,,,,,,,,228.9947559000011,229.00941070000044,229.4927284000005,230.99155410000094,None,1,,,,,,,,,,,,,,,,5 2BACK,001,2026-05-03_05h53.36.979,untitled,,2025.1.1,60.02433386528198,2026-05-03 05h53.51.730437 +0200,
R,2.wav,0,0,0,35,35,0,,,,,bloc_c.xlsx,None,1,,,,,,,,,,,,0,0,0,0,0,1,1,1,0,35,35,35,231.0079378999999,,,,,,,,,,,,,,,,,,,,,,,,,,,,,,,,,,,,,230.9935261999999,231.0079378999999,231.49099430000024,232.98994810000113,None,1,,,,,,,,,,,,,,,,5 2BACK,001,2026-05-03_05h53.36.979,untitled,,2025.1.1,60.02433386528198,2026-05-03 05h53.51.730437 +0200,
A,6.wav,1,0,0,36,36,0,,,,,bloc_c.xlsx,space,1,0.9506369999999151,0.1526443000002473,,,,,,,,,,0,0,0,0,0,1,1,1,0,36,36,36,233.00617150000107,,,,,,,,,,,,,,,,,,,,,,,,,,,,,,,,,,,,,232.9911643000014,233.00617150000107,233.48928590000105,234.98823670000093,space,1,0.9506369999999151,0.1526443000002473,,,,,,,,,,,,,,5 2BACK,001,2026-05-03_05h53.36.979,untitled,,2025.1.1,60.02433386528198,2026-05-03 05h53.51.730437 +0200,
U,8.wav,0,0,0,37,37,0,,,,,bloc_c.xlsx,None,1,,,,,,,,,,,,0,0,0,0,0,1,1,1,0,37,37,37,235.00466349999988,,,,,,,,,,,,,,,,,,,,,,,,,,,,,,,,,,,,,234.99015910000162,235.00466349999988,235.48762940000051,236.98653400000148,None,1,,,,,,,,,,,,,,,,5 2BACK,001,2026-05-03_05h53.36.979,untitled,,2025.1.1,60.02433386528198,2026-05-03 05h53.51.730437 +0200,
N,1.wav,0,0,0,38,38,0,,,,,bloc_c.xlsx,None,1,,,,,,,,,,,,0,0,0,0,0,1,1,1,0,38,38,38,237.00302160000138,,,,,,,,,,,,,,,,,,,,,,,,,,,,,,,,,,,,,236.98792630000025,237.00302160000138,237.48602030000075,238.98486080000112,None,1,,,,,,,,,,,,,,,,5 2BACK,001,2026-05-03_05h53.36.979,untitled,,2025.1.1,60.02433386528198,2026-05-03 05h53.51.730437 +0200,
K,3.wav,0,0,0,39,39,0,,,,,bloc_c.xlsx,None,1,,,,,,,,,,,,0,0,0,0,0,1,1,1,0,39,39,39,239.00141919999987,,,,,,,,,,,,,,,,,,,,,,,,,,,,,,,,,,,,,238.98616200000106,239.00141919999987,239.48439820000021,240.98307060000116,None,1,,,,,,,,,,,,,,,,5 2BACK,001,2026-05-03_05h53.36.979,untitled,,2025.1.1,60.02433386528198,2026-05-03 05h53.51.730437 +0200,
N,1.wav,1,1,1,40,40,0,,,,,bloc_c.xlsx,space,1,1.1931641999999556,0.16796380000050704,,,,,,,,,,0,0,0,0,0,1,1,1,0,40,40,40,240.99960680000004,,,,,,,,,,,,,,,,,,,,,,,,,,,,,,,,,,,,,240.98506740000084,240.99960680000004,241.48268420000022,242.9983376,space,1,1.1931641999999556,0.16796380000050704,242.99799110000095,,,,,,,,,,,,,5 2BACK,001,2026-05-03_05h53.36.979,untitled,,2025.1.1,60.02433386528198,2026-05-03 05h53.51.730437 +0200,
P,8.wav,0,0,0,41,41,0,,,,,bloc_c.xlsx,None,1,,,,,,,,,,,,0,0,0,0,0,1,1,1,0,41,41,41,243.01489390000097,,,,,,,,,,,,,,,,,,,,,,,,,,,,,,,,,,,,,242.99967939999988,243.01489390000097,243.48107300000083,244.99642590000076,None,1,,,244.99627060000057,,,,,,,,,,,,,5 2BACK,001,2026-05-03_05h53.36.979,untitled,,2025.1.1,60.02433386528198,2026-05-03 05h53.51.730437 +0200,
G,2.wav,0,0,0,42,42,0,,,,,bloc_c.xlsx,None,1,,,,,,,,,,,,0,0,0,0,0,1,1,1,0,42,42,42,245.01313110000046,,,,,,,,,,,,,,,,,,,,,,,,,,,,,,,,,,,,,244.9981493000014,245.01313110000046,245.49589110000124,246.99510480000026,None,1,,,,,,,,,,,,,,,,5 2BACK,001,2026-05-03_05h53.36.979,untitled,,2025.1.1,60.02433386528198,2026-05-03 05h53.51.730437 +0200,
Q,4.wav,0,0,0,43,43,0,,,,,bloc_c.xlsx,None,1,,,,,,,,,,,,0,0,0,0,0,1,1,1,0,43,43,43,247.01150770000095,,,,,,,,,,,,,,,,,,,,,,,,,,,,,,,,,,,,,246.99640210000143,247.01150770000095,247.49442320000162,248.99327710000034,None,1,,,,,,,,,,,,,,,,5 2BACK,001,2026-05-03_05h53.36.979,untitled,,2025.1.1,60.02433386528198,2026-05-03 05h53.51.730437 +0200,
B,6.wav,0,0,0,44,44,0,,,,,bloc_c.xlsx,None,1,,,,,,,,,,,,0,0,0,0,0,1,1,1,0,44,44,44,249.00979420000112,,,,,,,,,,,,,,,,,,,,,,,,,,,,,,,,,,,,,248.99485970000023,249.00979420000112,249.4927864000001,250.99191260000043,None,1,,,,,,,,,,,,,,,,5 2BACK,001,2026-05-03_05h53.36.979,untitled,,2025.1.1,60.02433386528198,2026-05-03 05h53.51.730437 +0200,
Q,2.wav,1,0,0,45,45,0,,,,,bloc_c.xlsx,space,1,1.1178543000005448,0.18498100000033446,,,,,,,,,,0,0,0,0,0,1,1,1,0,45,45,45,251.0080039000004,,,,,,,,,,,,,,,,,,,,,,,,,,,,,,,,,,,,,250.99344310000015,251.0080039000004,251.49101710000105,252.9900121999999,space,1,1.1178543000005448,0.18498100000033446,,,,,,,,,,,,,,5 2BACK,001,2026-05-03_05h53.36.979,untitled,,2025.1.1,60.02433386528198,2026-05-03 05h53.51.730437 +0200,
E,3.wav,0,0,0,46,46,0,,,,,bloc_c.xlsx,None,1,,,,,,,,,,,,0,0,0,0,0,1,1,1,0,46,46,46,253.0064684000008,,,,,,,,,,,,,,,,,,,,,,,,,,,,,,,,,,,,,252.99140590000025,253.0064684000008,253.4894576000006,254.98834800000077,None,1,,,,,,,,,,,,,,,,5 2BACK,001,2026-05-03_05h53.36.979,untitled,,2025.1.1,60.02433386528198,2026-05-03 05h53.51.730437 +0200,
U,2.wav,0,1,0,47,47,0,,,,,bloc_c.xlsx,None,1,,,,,,,,,,,,0,0,0,0,0,1,1,1,0,47,47,47,255.00494760000038,,,,,,,,,,,,,,,,,,,,,,,,,,,,,,,,,,,,,254.98981810000078,255.00494760000038,255.48779130000003,256.98672160000024,None,1,,,,,,,,,,,,,,,,5 2BACK,001,2026-05-03_05h53.36.979,untitled,,2025.1.1,60.02433386528198,2026-05-03 05h53.51.730437 +0200,
D,4.wav,0,0,0,48,48,0,,,,,bloc_c.xlsx,None,1,,,,,,,,,,,,0,0,0,0,0,1,1,1,0,48,48,48,257.00314080000135,,,,,,,,,,,,,,,,,,,,,,,,,,,,,,,,,,,,,256.9929116000003,257.00314080000135,257.48605320000024,258.98510739999983,None,1,,,,,,,,,,,,,,,,5 2BACK,001,2026-05-03_05h53.36.979,untitled,,2025.1.1,60.02433386528198,2026-05-03 05h53.51.730437 +0200,
W,6.wav,0,0,0,49,49,0,,,,,bloc_c.xlsx,None,1,,,,,,,,,,,,0,0,0,0,0,1,1,1,0,49,49,49,259.00170720000096,,,,,,,,,,,,,,,,,,,,,,,,,,,,,,,,,,,,,258.9864008000004,259.00170720000096,259.4844539000005,260.98328420000144,None,1,,,260.98318560000007,,,,,,,,,,,,,5 2BACK,001,2026-05-03_05h53.36.979,untitled,,2025.1.1,60.02433386528198,2026-05-03 05h53.51.730437 +0200,
,,,,,1,1,0,,,,,bloc_c.xlsx,,,,,,,,,,,,,,0,0,0,0,0,1,1,1,,,,,,,,,,,,,,,,,,,,,,,,,,,,,,,,,,,,,,,,,,,,,,,,,,,,,,,,,,,,,,,5 2BACK,001,2026-05-03_05h53.36.979,untitled,,2025.1.1,60.02433386528198,2026-05-03 05h53.51.730437 +0200,
D,5.wav,0,0,0,0,0,0,,,,,bloc_a.xlsx,None,0,,,,,,,,,,,,0,0,0,0,0,2,2,0,0,0,0,0,261.00160460000006,,,,,,,,,,,,,,,,,,,,,,,,,,,,,,,,,,,,,261.0004379000002,261.00160460000006,261.48285120000037,262.99844400000075,None,0,,,262.9982467000009,,,,,,,,,,,,,5 2BACK,001,2026-05-03_05h53.36.979,untitled,,2025.1.1,60.02433386528198,2026-05-03 05h53.51.730437 +0200,
W,2.wav,0,0,0,1,1,0,,,,,bloc_a.xlsx,space,1,1.1060009000011632,0.19095909999850846,,,,,,,,,,0,0,0,0,0,2,2,0,0,1,1,1,263.01500360000136,,,,,,,,,,,,,,,,,,,,,,,,,,,,,,,,,,,,,262.99964480000017,263.01500360000136,263.4810873000006,264.99695130000146,space,1,1.1060009000011632,0.19095909999850846,264.9966979000001,,,,,,,,,,,,,5 2BACK,001,2026-05-03_05h53.36.979,untitled,,2025.1.1,60.02433386528198,2026-05-03 05h53.51.730437 +0200,
C,5.wav,0,1,0,2,2,0,,,,,bloc_a.xlsx,None,1,,,,,,,,,,,,0,0,0,0,0,2,2,0,0,2,2,2,265.0133405000015,,,,,,,,,,,,,,,,,,,,,,,,,,,,,,,,,,,,,264.99822680000034,265.0133405000015,265.4962821000008,266.9953107000001,None,1,,,,,,,,,,,,,,,,5 2BACK,001,2026-05-03_05h53.36.979,untitled,,2025.1.1,60.02433386528198,2026-05-03 05h53.51.730437 +0200,
T,8.wav,0,0,0,3,3,0,,,,,bloc_a.xlsx,None,1,,,,,,,,,,,,0,0,0,0,0,2,2,0,0,3,3,3,267.01167590000114,,,,,,,,,,,,,,,,,,,,,,,,,,,,,,,,,,,,,266.99659820000124,267.01167590000114,267.4946552000001,268.99358070000017,None,1,,,,,,,,,,,,,,,,5 2BACK,001,2026-05-03_05h53.36.979,untitled,,2025.1.1,60.02433386528198,2026-05-03 05h53.51.730437 +0200,
N,3.wav,0,0,0,4,4,0,,,,,bloc_a.xlsx,None,1,,,,,,,,,,,,0,0,0,0,0,2,2,0,0,4,4,4,269.0100290999999,,,,,,,,,,,,,,,,,,,,,,,,,,,,,,,,,,,,,268.9949088000012,269.0100290999999,269.4930239000005,270.9918802000011,None,1,,,,,,,,,,,,,,,,5 2BACK,001,2026-05-03_05h53.36.979,untitled,,2025.1.1,60.02433386528198,2026-05-03 05h53.51.730437 +0200,
C,5.wav,0,0,0,5,5,0,,,,,bloc_a.xlsx,None,1,,,,,,,,,,,,0,0,0,0,0,2,2,0,0,5,5,5,271.0084631000009,,,,,,,,,,,,,,,,,,,,,,,,,,,,,,,,,,,,,270.9931809999998,271.0084631000009,271.4913979000012,272.99039580000135,None,1,,,,,,,,,,,,,,,,5 2BACK,001,2026-05-03_05h53.36.979,untitled,,2025.1.1,60.02433386528198,2026-05-03 05h53.51.730437 +0200,
N,4.wav,1,0,0,6,6,0,,,,,bloc_a.xlsx,space,1,1.0268223000002763,0.15344050000021525,,,,,,,,,,0,0,0,0,0,2,2,0,0,6,6,6,273.00689440000133,,,,,,,,,,,,,,,,,,,,,,,,,,,,,,,,,,,,,272.9916497000013,273.00689440000133,273.48975040000005,274.9889421000007,space,1,1.0268223000002763,0.15344050000021525,,,,,,,,,,,,,,5 2BACK,001,2026-05-03_05h53.36.979,untitled,,2025.1.1,60.02433386528198,2026-05-03 05h53.51.730437 +0200,
D,2.wav,0,0,0,7,7,0,,,,,bloc_a.xlsx,None,1,,,,,,,,,,,,0,0,0,0,0,2,2,0,0,7,7,7,275.00501350000013,,,,,,,,,,,,,,,,,,,,,,,,,,,,,,,,,,,,,274.9905617000004,275.00501350000013,275.4881415,276.98721579999983,None,1,,,,,,,,,,,,,,,,5 2BACK,001,2026-05-03_05h53.36.979,untitled,,2025.1.1,60.02433386528198,2026-05-03 05h53.51.730437 +0200,
R,4.wav,0,1,0,8,8,0,,,,,bloc_a.xlsx,None,1,,,,,,,,,,,,0,0,0,0,0,2,2,0,0,8,8,8,277.00348269999995,,,,,,,,,,,,,,,,,,,,,,,,,,,,,,,,,,,,,276.9888367000003,277.00348269999995,277.48643040000024,278.9854430000014,None,1,,,,,,,,,,,,,,,,5 2BACK,001,2026-05-03_05h53.36.979,untitled,,2025.1.1,60.02433386528198,2026-05-03 05h53.51.730437 +0200,
A,7.wav,0,0,0,9,9,0,,,,,bloc_a.xlsx,None,1,,,,,,,,,,,,0,0,0,0,0,2,2,0,0,9,9,9,279.0019006000002,,,,,,,,,,,,,,,,,,,,,,,,,,,,,,,,,,,,,278.9868432000003,279.0019006000002,279.48481750000064,280.98361750000004,None,1,,,,,,,,,,,,,,,,5 2BACK,001,2026-05-03_05h53.36.979,untitled,,2025.1.1,60.02433386528198,2026-05-03 05h53.51.730437 +0200,
V,3.wav,0,0,0,10,10,0,,,,,bloc_a.xlsx,None,1,,,,,,,,,,,,0,0,0,0,0,2,2,0,0,10,10,10,281.00019969999994,,,,,,,,,,,,,,,,,,,,,,,,,,,,,,,,,,,,,280.98556460000145,281.00019969999994,281.48307170000044,282.982071800001,None,1,,,,,,,,,,,,,,,,5 2BACK,001,2026-05-03_05h53.36.979,untitled,,2025.1.1,60.02433386528198,2026-05-03 05h53.51.730437 +0200,
A,6.wav,1,0,0,11,11,0,,,,,bloc_a.xlsx,space,1,0.9193656999996165,0.14386930000000575,,,,,,,,,,0,0,0,0,0,2,2,0,0,11,11,11,282.99860010000157,,,,,,,,,,,,,,,,,,,,,,,,,,,,,,,,,,,,,282.9834426000016,282.99860010000157,283.481523800001,284.9970262000006,space,1,0.9193656999996165,0.14386930000000575,284.9968204000015,,,,,,,,,,,,,5 2BACK,001,2026-05-03_05h53.36.979,untitled,,2025.1.1,60.02433386528198,2026-05-03 05h53.51.730437 +0200,
P,3.wav,0,1,0,12,12,0,,,,,bloc_a.xlsx,None,1,,,,,,,,,,,,0,0,0,0,0,2,2,0,0,12,12,12,285.01352190000034,,,,,,,,,,,,,,,,,,,,,,,,,,,,,,,,,,,,,284.9983213000014,285.01352190000034,285.49665650000134,286.9953576000007,None,1,,,,,,,,,,,,,,,,5 2BACK,001,2026-05-03_05h53.36.979,untitled,,2025.1.1,60.02433386528198,2026-05-03 05h53.51.730437 +0200,
D,1.wav,0,0,0,13,13,0,,,,,bloc_a.xlsx,None,1,,,,,,,,,,,,0,0,0,0,0,2,2,0,0,13,13,13,287.0119241000011,,,,,,,,,,,,,,,,,,,,,,,,,,,,,,,,,,,,,286.9968904000016,287.0119241000011,287.49486400000023,288.9939004000007,None,1,,,,,,,,,,,,,,,,5 2BACK,001,2026-05-03_05h53.36.979,untitled,,2025.1.1,60.02433386528198,2026-05-03 05h53.51.730437 +0200,
P,8.wav,1,0,0,14,14,0,,,,,bloc_a.xlsx,space,1,0.8202251000002434,0.1507209999999759,,,,,,,,,,0,0,0,0,0,2,2,0,0,14,14,14,289.0101927000014,,,,,,,,,,,,,,,,,,,,,,,,,,,,,,,,,,,,,288.9959239,289.0101927000014,289.49319040000046,290.9920574000007,space,1,0.8202251000002434,0.1507209999999759,,,,,,,,,,,,,,5 2BACK,001,2026-05-03_05h53.36.979,untitled,,2025.1.1,60.02433386528198,2026-05-03 05h53.51.730437 +0200,
V,1.wav,0,1,0,15,15,0,,,,,bloc_a.xlsx,None,1,,,,,,,,,,,,0,0,0,0,0,2,2,0,0,15,15,15,291.0086439000006,,,,,,,,,,,,,,,,,,,,,,,,,,,,,,,,,,,,,290.9933301000001,291.0086439000006,291.49167940000007,292.99070200000097,None,1,,,,,,,,,,,,,,,,5 2BACK,001,2026-05-03_05h53.36.979,untitled,,2025.1.1,60.02433386528198,2026-05-03 05h53.51.730437 +0200,
Y,3.wav,0,0,0,16,16,0,,,,,bloc_a.xlsx,None,1,,,,,,,,,,,,0,0,0,0,0,2,2,0,0,16,16,16,293.0068228,,,,,,,,,,,,,,,,,,,,,,,,,,,,,,,,,,,,,292.99210850000054,293.0068228,293.48979860000145,294.98903150000115,None,1,,,,,,,,,,,,,,,,5 2BACK,001,2026-05-03_05h53.36.979,untitled,,2025.1.1,60.02433386528198,2026-05-03 05h53.51.730437 +0200,
V,7.wav,1,0,0,17,17,0,,,,,bloc_a.xlsx,space,1,1.1478018999987398,0.10582280000016908,,,,,,,,,,0,0,0,0,0,2,2,0,0,17,17,17,295.00502920000145,,,,,,,,,,,,,,,,,,,,,,,,,,,,,,,,,,,,,294.9913645000015,295.00502920000145,295.48816590000024,296.98708330000045,space,1,1.1478018999987398,0.10582280000016908,,,,,,,,,,,,,,5 2BACK,001,2026-05-03_05h53.36.979,untitled,,2025.1.1,60.02433386528198,2026-05-03 05h53.51.730437 +0200,
N,5.wav,0,0,0,18,18,0,,,,,bloc_a.xlsx,None,1,,,,,,,,,,,,0,0,0,0,0,2,2,0,0,18,18,18,297.0037009000007,,,,,,,,,,,,,,,,,,,,,,,,,,,,,,,,,,,,,296.9889155000001,297.0037009000007,297.4867099000003,298.9855488000012,None,1,,,,,,,,,,,,,,,,5 2BACK,001,2026-05-03_05h53.36.979,untitled,,2025.1.1,60.02433386528198,2026-05-03 05h53.51.730437 +0200,
A,4.wav,0,0,0,19,19,0,,,,,bloc_a.xlsx,None,1,,,,,,,,,,,,0,0,0,0,0,2,2,0,0,19,19,19,299.00198270000146,,,,,,,,,,,,,,,,,,,,,,,,,,,,,,,,,,,,,298.98688589999983,299.00198270000146,299.4849961,300.9840767000005,None,1,,,,,,,,,,,,,,,,5 2BACK,001,2026-05-03_05h53.36.979,untitled,,2025.1.1,60.02433386528198,2026-05-03 05h53.51.730437 +0200,
N,5.wav,1,1,1,20,20,0,,,,,bloc_a.xlsx,space,1,1.1520745999987412,0.13090360000023793,,,,,,,,,,0,0,0,0,0,2,2,0,0,20,20,20,301.0003678000012,,,,,,,,,,,,,,,,,,,,,,,,,,,,,,,,,,,,,300.98589060000086,301.0003678000012,301.4834699000003,302.9823668000008,space,1,1.1520745999987412,0.13090360000023793,,,,,,,,,,,,,,5 2BACK,001,2026-05-03_05h53.36.979,untitled,,2025.1.1,60.02433386528198,2026-05-03 05h53.51.730437 +0200,
M,1.wav,0,0,0,21,21,0,,,,,bloc_a.xlsx,None,1,,,,,,,,,,,,0,0,0,0,0,2,2,0,0,21,21,21,302.9987359000006,,,,,,,,,,,,,,,,,,,,,,,,,,,,,,,,,,,,,302.98390030000155,302.9987359000006,303.4816808000014,304.9972957000009,None,1,,,304.9970678999998,,,,,,,,,,,,,5 2BACK,001,2026-05-03_05h53.36.979,untitled,,2025.1.1,60.02433386528198,2026-05-03 05h53.51.730437 +0200,
J,8.wav,0,0,0,22,22,0,,,,,bloc_a.xlsx,None,1,,,,,,,,,,,,0,0,0,0,0,2,2,0,0,22,22,22,305.01376380000147,,,,,,,,,,,,,,,,,,,,,,,,,,,,,,,,,,,,,305.00042680000115,305.01376380000147,305.4967116000007,306.99563750000016,None,1,,,,,,,,,,,,,,,,5 2BACK,001,2026-05-03_05h53.36.979,untitled,,2025.1.1,60.02433386528198,2026-05-03 05h53.51.730437 +0200,
T,3.wav,0,0,0,23,23,0,,,,,bloc_a.xlsx,None,1,,,,,,,,,,,,0,0,0,0,0,2,2,0,0,23,23,23,307.01209870000093,,,,,,,,,,,,,,,,,,,,,,,,,,,,,,,,,,,,,306.9972000000016,307.01209870000093,307.49491149999994,308.99363450000055,None,1,,,308.99354290000156,,,,,,,,,,,,,5 2BACK,001,2026-05-03_05h53.36.979,untitled,,2025.1.1,60.02433386528198,2026-05-03 05h53.51.730437 +0200,
J,5.wav,1,0,0,24,24,0,,,,,bloc_a.xlsx,None,0,,,,,,,,,,,,0,0,0,0,0,2,2,0,0,24,24,24,309.0104377000007,,,,,,,,,,,,,,,,,,,,,,,,,,,,,,,,,,,,,308.99487020000015,309.0104377000007,309.4932563000002,310.9926688000014,None,0,,,,,,,,,,,,,,,,5 2BACK,001,2026-05-03_05h53.36.979,untitled,,2025.1.1,60.02433386528198,2026-05-03 05h53.51.730437 +0200,
B,3.wav,0,1,0,25,25,0,,,,,bloc_a.xlsx,space,0,1.3735921999996208,0.20329170000150043,,,,,,,,,,0,0,0,0,0,2,2,0,0,25,25,25,311.0088880000003,,,,,,,,,,,,,,,,,,,,,,,,,,,,,,,,,,,,,310.9940514000009,311.0088880000003,311.4918936000013,312.9908475000011,space,0,1.3735921999996208,0.20329170000150043,,,,,,,,,,,,,,5 2BACK,001,2026-05-03_05h53.36.979,untitled,,2025.1.1,60.02433386528198,2026-05-03 05h53.51.730437 +0200,
V,8.wav,0,0,0,26,26,0,,,,,bloc_a.xlsx,None,1,,,,,,,,,,,,0,0,0,0,0,2,2,0,0,26,26,26,313.0071461000007,,,,,,,,,,,,,,,,,,,,,,,,,,,,,,,,,,,,,312.99300230000154,313.0071461000007,313.4900309000004,314.9889942000009,None,1,,,,,,,,,,,,,,,,5 2BACK,001,2026-05-03_05h53.36.979,untitled,,2025.1.1,60.02433386528198,2026-05-03 05h53.51.730437 +0200,
B,1.wav,1,0,0,27,27,0,,,,,bloc_a.xlsx,space,1,0.8484597000006033,0.2005220000010013,,,,,,,,,,0,0,0,0,0,2,2,0,0,27,27,27,315.00553910000053,,,,,,,,,,,,,,,,,,,,,,,,,,,,,,,,,,,,,314.9903974000008,315.00553910000053,315.4883903000009,316.98752930000046,space,1,0.8484597000006033,0.2005220000010013,,,,,,,,,,,,,,5 2BACK,001,2026-05-03_05h53.36.979,untitled,,2025.1.1,60.02433386528198,2026-05-03 05h53.51.730437 +0200,
M,4.wav,0,0,0,28,28,0,,,,,bloc_a.xlsx,None,1,,,,,,,,,,,,0,0,0,0,0,2,2,0,0,28,28,28,317.0040254000014,,,,,,,,,,,,,,,,,,,,,,,,,,,,,,,,,,,,,316.9888881000006,317.0040254000014,317.4867282000014,318.98601300000155,None,1,,,,,,,,,,,,,,,,5 2BACK,001,2026-05-03_05h53.36.979,untitled,,2025.1.1,60.02433386528198,2026-05-03 05h53.51.730437 +0200,
R,6.wav,0,0,0,29,29,0,,,,,bloc_a.xlsx,None,1,,,,,,,,,,,,0,0,0,0,0,2,2,0,0,29,29,29,319.00215370000114,,,,,,,,,,,,,,,,,,,,,,,,,,,,,,,,,,,,,318.9875654000007,319.00215370000114,319.4851628000015,320.9840165000005,None,1,,,,,,,,,,,,,,,,5 2BACK,001,2026-05-03_05h53.36.979,untitled,,2025.1.1,60.02433386528198,2026-05-03 05h53.51.730437 +0200,
N,4.wav,0,1,0,30,30,0,,,,,bloc_a.xlsx,None,1,,,,,,,,,,,,0,0,0,0,0,2,2,0,0,30,30,30,321.0007114,,,,,,,,,,,,,,,,,,,,,,,,,,,,,,,,,,,,,320.98557190000065,321.0007114,321.4834174000007,322.9824520000002,None,1,,,,,,,,,,,,,,,,5 2BACK,001,2026-05-03_05h53.36.979,untitled,,2025.1.1,60.02433386528198,2026-05-03 05h53.51.730437 +0200,
A,8.wav,0,0,0,31,31,0,,,,,bloc_a.xlsx,None,1,,,,,,,,,,,,0,0,0,0,0,2,2,0,0,31,31,31,322.998983200001,,,,,,,,,,,,,,,,,,,,,,,,,,,,,,,,,,,,,322.9837167000005,322.998983200001,323.48186160000114,324.9975549999999,None,1,,,324.99727600000006,,,,,,,,,,,,,5 2BACK,001,2026-05-03_05h53.36.979,untitled,,2025.1.1,60.02433386528198,2026-05-03 05h53.51.730437 +0200,
Y,7.wav,0,0,0,32,32,0,,,,,bloc_a.xlsx,None,1,,,,,,,,,,,,0,0,0,0,0,2,2,0,0,32,32,32,325.0140211000016,,,,,,,,,,,,,,,,,,,,,,,,,,,,,,,,,,,,,324.99895990000005,325.0140211000016,325.49699880000117,326.9959214999999,None,1,,,,,,,,,,,,,,,,5 2BACK,001,2026-05-03_05h53.36.979,untitled,,2025.1.1,60.02433386528198,2026-05-03 05h53.51.730437 +0200,
A,6.wav,1,0,0,33,33,0,,,,,bloc_a.xlsx,space,1,1.0413451000003988,0.19282440000097267,,,,,,,,,,0,0,0,0,0,2,2,0,0,33,33,33,327.01225180000074,,,,,,,,,,,,,,,,,,,,,,,,,,,,,,,,,,,,,326.99738360000083,327.01225180000074,327.49528290000126,328.9943736000005,space,1,1.0413451000003988,0.19282440000097267,,,,,,,,,,,,,,5 2BACK,001,2026-05-03_05h53.36.979,untitled,,2025.1.1,60.02433386528198,2026-05-03 05h53.51.730437 +0200,
X,8.wav,0,0,0,34,34,0,,,,,bloc_a.xlsx,None,1,,,,,,,,,,,,0,0,0,0,0,2,2,0,0,34,34,34,329.0107530000005,,,,,,,,,,,,,,,,,,,,,,,,,,,,,,,,,,,,,328.9958144000011,329.0107530000005,329.49363450000055,330.99296850000064,None,1,,,,,,,,,,,,,,,,5 2BACK,001,2026-05-03_05h53.36.979,untitled,,2025.1.1,60.02433386528198,2026-05-03 05h53.51.730437 +0200,
G,7.wav,0,0,0,35,35,0,,,,,bloc_a.xlsx,None,1,,,,,,,,,,,,0,0,0,0,0,2,2,0,0,35,35,35,331.00907330000155,,,,,,,,,,,,,,,,,,,,,,,,,,,,,,,,,,,,,330.99474250000094,331.00907330000155,331.49195450000116,332.99097040000015,None,1,,,,,,,,,,,,,,,,5 2BACK,001,2026-05-03_05h53.36.979,untitled,,2025.1.1,60.02433386528198,2026-05-03 05h53.51.730437 +0200,
Q,8.wav,0,1,0,36,36,0,,,,,bloc_a.xlsx,space,0,1.7005871999990632,0.2163500999995449,,,,,,,,,,0,0,0,0,0,2,2,0,0,36,36,36,333.00740640000004,,,,,,,,,,,,,,,,,,,,,,,,,,,,,,,,,,,,,332.9923675000009,333.00740640000004,333.4902983000011,334.98944480000137,space,0,1.7005871999990632,0.2163500999995449,,,,,,,,,,,,,,5 2BACK,001,2026-05-03_05h53.36.979,untitled,,2025.1.1,60.02433386528198,2026-05-03 05h53.51.730437 +0200,
C,4.wav,0,0,0,37,37,0,,,,,bloc_a.xlsx,None,1,,,,,,,,,,,,0,0,0,0,0,2,2,0,0,37,37,37,335.00572850000026,,,,,,,,,,,,,,,,,,,,,,,,,,,,,,,,,,,,,334.9909512000013,335.00572850000026,335.48879730000044,336.9877780000006,None,1,,,,,,,,,,,,,,,,5 2BACK,001,2026-05-03_05h53.36.979,untitled,,2025.1.1,60.02433386528198,2026-05-03 05h53.51.730437 +0200,
Z,3.wav,0,0,0,38,38,0,,,,,bloc_a.xlsx,None,1,,,,,,,,,,,,0,0,0,0,0,2,2,0,0,38,38,38,337.0040676000008,,,,,,,,,,,,,,,,,,,,,,,,,,,,,,,,,,,,,336.9890410000007,337.0040676000008,337.48708910000096,338.98604780000096,None,1,,,,,,,,,,,,,,,,5 2BACK,001,2026-05-03_05h53.36.979,untitled,,2025.1.1,60.02433386528198,2026-05-03 05h53.51.730437 +0200,
F,6.wav,0,0,0,39,39,0,,,,,bloc_a.xlsx,None,1,,,,,,,,,,,,0,0,0,0,0,2,2,0,0,39,39,39,339.0025518000002,,,,,,,,,,,,,,,,,,,,,,,,,,,,,,,,,,,,,338.9879828000012,339.0025518000002,339.4855593000011,340.9843868000007,None,1,,,,,,,,,,,,,,,,5 2BACK,001,2026-05-03_05h53.36.979,untitled,,2025.1.1,60.02433386528198,2026-05-03 05h53.51.730437 +0200,
Z,1.wav,1,0,0,40,40,0,,,,,bloc_a.xlsx,None,0,,,,,,,,,,,,0,0,0,0,0,2,2,0,0,40,40,40,341.0009872999999,,,,,,,,,,,,,,,,,,,,,,,,,,,,,,,,,,,,,340.98577470000055,341.0009872999999,341.4839174000008,342.9829720000016,None,0,,,,,,,,,,,,,,,,5 2BACK,001,2026-05-03_05h53.36.979,untitled,,2025.1.1,60.02433386528198,2026-05-03 05h53.51.730437 +0200,
N,3.wav,0,0,0,41,41,0,,,,,bloc_a.xlsx,None,1,,,,,,,,,,,,0,0,0,0,0,2,2,0,0,41,41,41,342.9991493000016,,,,,,,,,,,,,,,,,,,,,,,,,,,,,,,,,,,,,342.9869587000012,342.9991493000016,343.4821322000007,344.99761560000115,None,1,,,344.9974895000014,,,,,,,,,,,,,5 2BACK,001,2026-05-03_05h53.36.979,untitled,,2025.1.1,60.02433386528198,2026-05-03 05h53.51.730437 +0200,
Y,1.wav,0,1,0,42,42,0,,,,,bloc_a.xlsx,None,1,,,,,,,,,,,,0,0,0,0,0,2,2,0,0,42,42,42,345.01407050000125,,,,,,,,,,,,,,,,,,,,,,,,,,,,,,,,,,,,,344.99904060000154,345.01407050000125,345.4971538000009,346.9961140000014,None,1,,,,,,,,,,,,,,,,5 2BACK,001,2026-05-03_05h53.36.979,untitled,,2025.1.1,60.02433386528198,2026-05-03 05h53.51.730437 +0200,
H,7.wav,0,0,0,43,43,0,,,,,bloc_a.xlsx,None,1,,,,,,,,,,,,0,0,0,0,0,2,2,0,0,43,43,43,347.01257200000146,,,,,,,,,,,,,,,,,,,,,,,,,,,,,,,,,,,,,346.9974908000004,347.01257200000146,347.4955660000014,348.9947551000005,None,1,,,,,,,,,,,,,,,,5 2BACK,001,2026-05-03_05h53.36.979,untitled,,2025.1.1,60.02433386528198,2026-05-03 05h53.51.730437 +0200,
C,4.wav,0,0,0,44,44,0,,,,,bloc_a.xlsx,None,1,,,,,,,,,,,,0,0,0,0,0,2,2,0,0,44,44,44,349.01078810000035,,,,,,,,,,,,,,,,,,,,,,,,,,,,,,,,,,,,,348.9971106000012,349.01078810000035,349.4938755000003,350.99298610000005,None,1,,,,,,,,,,,,,,,,5 2BACK,001,2026-05-03_05h53.36.979,untitled,,2025.1.1,60.02433386528198,2026-05-03 05h53.51.730437 +0200,
Y,7.wav,0,1,0,45,45,0,,,,,bloc_a.xlsx,None,1,,,,,,,,,,,,0,0,0,0,0,2,2,0,0,45,45,45,351.00916680000046,,,,,,,,,,,,,,,,,,,,,,,,,,,,,,,,,,,,,350.9942131000007,351.00916680000046,351.49204910000117,352.9911467000002,None,1,,,,,,,,,,,,,,,,5 2BACK,001,2026-05-03_05h53.36.979,untitled,,2025.1.1,60.02433386528198,2026-05-03 05h53.51.730437 +0200,
B,6.wav,0,0,0,46,46,0,,,,,bloc_a.xlsx,None,1,,,,,,,,,,,,0,0,0,0,0,2,2,0,0,46,46,46,353.00751970000056,,,,,,,,,,,,,,,,,,,,,,,,,,,,,,,,,,,,,352.9924867999998,353.00751970000056,353.49056440000095,354.98959710000054,None,1,,,,,,,,,,,,,,,,5 2BACK,001,2026-05-03_05h53.36.979,untitled,,2025.1.1,60.02433386528198,2026-05-03 05h53.51.730437 +0200,
Y,5.wav,1,0,0,47,47,0,,,,,bloc_a.xlsx,space,1,0.9422174999999697,0.16032070000073873,,,,,,,,,,0,0,0,0,0,2,2,0,0,47,47,47,355.0059349000003,,,,,,,,,,,,,,,,,,,,,,,,,,,,,,,,,,,,,354.99146120000114,355.0059349000003,355.48904720000064,356.9878069000006,space,1,0.9422174999999697,0.16032070000073873,,,,,,,,,,,,,,5 2BACK,001,2026-05-03_05h53.36.979,untitled,,2025.1.1,60.02433386528198,2026-05-03 05h53.51.730437 +0200,
T,7.wav,0,0,0,48,48,0,,,,,bloc_a.xlsx,None,1,,,,,,,,,,,,0,0,0,0,0,2,2,0,0,48,48,48,357.00414610000007,,,,,,,,,,,,,,,,,,,,,,,,,,,,,,,,,,,,,356.9898077000016,357.00414610000007,357.4873290000014,358.98647210000127,None,1,,,,,,,,,,,,,,,,5 2BACK,001,2026-05-03_05h53.36.979,untitled,,2025.1.1,60.02433386528198,2026-05-03 05h53.51.730437 +0200,
N,2.wav,0,0,0,49,49,0,,,,,bloc_a.xlsx,None,1,,,,,,,,,,,,0,0,0,0,0,2,2,0,0,49,49,49,359.00262380000095,,,,,,,,,,,,,,,,,,,,,,,,,,,,,,,,,,,,,358.98809810000057,359.00262380000095,359.4856743,360.98461640000096,None,1,,,,,,,,,,,,,,,,5 2BACK,001,2026-05-03_05h53.36.979,untitled,,2025.1.1,60.02433386528198,2026-05-03 05h53.51.730437 +0200,
,,,,,2,2,0,,,,,bloc_a.xlsx,,,,,,,,,,,,,,0,0,0,0,0,2,2,0,,,,,,,,,,,,,,,,,,,,,,,,,,,,,,,,,,,,,,,,,,,,,,,,,,,,,,,,,,,,,,,5 2BACK,001,2026-05-03_05h53.36.979,untitled,,2025.1.1,60.02433386528198,2026-05-03 05h53.51.730437 +0200,
,,,,,0,0,0,,,,,bloc_a.xlsx,,,,,8.0,15.680843399999503,1,[24.07746009999937],[24.077468299999964],,,,,0,0,0,0,,,,,,,,,,,,,,,,,,,,,,,,,,,,,,,,,,,,,,,,,,,,,,,,,,,,,,,361.0000424000009,361.0485241000006,361.0485241000006,361.0485241000006,361.0485241000006,361.0485241000006,385.12662869999986,8.0,15.680843399999503,1,[24.07746009999937],[24.077468299999964],5 2BACK,001,2026-05-03_05h53.36.979,untitled,,2025.1.1,60.02433386528198,2026-05-03 05h53.51.730437 +0200,
Z,6.wav,0,0,0,0,0,0,,,,,bloc_c.xlsx,None,1,,,,,,,,,,,,0,1,1,1,0,0,0,1,0,0,0,0,385.1408233000002,,,,,,,,,,,,,,,,,,,,,,,,,,,,,,,,,,,,,385.13948270000037,385.1408233000002,385.63081450000027,387.1297205999999,None,1,,,,,,,,,,,,,,,,5 2BACK,001,2026-05-03_05h53.36.979,untitled,,2025.1.1,60.02433386528198,2026-05-03 05h53.51.730437 +0200,
M,7.wav,0,0,0,1,1,0,,,,,bloc_c.xlsx,None,1,,,,,,,,,,,,0,1,1,1,0,0,0,1,0,1,1,1,387.1462300000003,,,,,,,,,,,,,,,,,,,,,,,,,,,,,,,,,,,,,387.131140200001,387.1462300000003,387.62892550000106,389.1282252000001,None,1,,,,,,,,,,,,,,,,5 2BACK,001,2026-05-03_05h53.36.979,untitled,,2025.1.1,60.02433386528198,2026-05-03 05h53.51.730437 +0200,
Z,1.wav,1,0,0,2,2,0,,,,,bloc_c.xlsx,space,1,1.04026309999972,0.15162180000152148,,,,,,,,,,0,1,1,1,0,0,0,1,0,2,2,2,389.1445958000004,,,,,,,,,,,,,,,,,,,,,,,,,,,,,,,,,,,,,389.1296146000004,389.1445958000004,389.6273400000009,391.1431272000009,space,1,1.04026309999972,0.15162180000152148,391.1262873000014,,,,,,,,,,,,,5 2BACK,001,2026-05-03_05h53.36.979,untitled,,2025.1.1,60.02433386528198,2026-05-03 05h53.51.730437 +0200,
E,8.wav,0,0,0,3,3,0,,,,,bloc_c.xlsx,None,1,,,,,,,,,,,,0,1,1,1,0,0,0,1,0,3,3,3,391.1596451000005,,,,,,,,,,,,,,,,,,,,,,,,,,,,,,,,,,,,,391.14453610000055,391.1596451000005,391.6256720000001,393.14144840000154,None,1,,,393.14131270000144,,,,,,,,,,,,,5 2BACK,001,2026-05-03_05h53.36.979,untitled,,2025.1.1,60.02433386528198,2026-05-03 05h53.51.730437 +0200,
R,3.wav,0,0,0,4,4,0,,,,,bloc_c.xlsx,space,0,1.9008149999990565,None,,,,,,,,,,0,1,1,1,0,0,0,1,0,4,4,4,393.1579734000006,,,,,,,,,,,,,,,,,,,,,,,,,,,,,,,,,,,,,393.1427164000015,393.1579734000006,393.64101160000064,395.1399958000002,space,0,1.9008149999990565,None,,,,,,,,,,,,,,5 2BACK,001,2026-05-03_05h53.36.979,untitled,,2025.1.1,60.02433386528198,2026-05-03 05h53.51.730437 +0200,
J,8.wav,0,1,0,5,5,0,,,,,bloc_c.xlsx,None,1,,,,,,,,,,,,0,1,1,1,0,0,0,1,0,5,5,5,395.156121,,,,,,,,,,,,,,,,,,,,,,,,,,,,,,,,,,,,,395.1418303999999,395.156121,395.6393669000008,397.13823870000124,None,1,,,,,,,,,,,,,,,,5 2BACK,001,2026-05-03_05h53.36.979,untitled,,2025.1.1,60.02433386528198,2026-05-03 05h53.51.730437 +0200,
R,5.wav,1,0,0,6,6,0,,,,,bloc_c.xlsx,space,1,0.8755694999999832,0.14652569999998377,,,,,,,,,,0,1,1,1,0,0,0,1,0,6,6,6,397.15465530000074,,,,,,,,,,,,,,,,,,,,,,,,,,,,,,,,,,,,,397.13960039999984,397.15465530000074,397.6377485000012,399.1366230000003,space,1,0.8755694999999832,0.14652569999998377,,,,,,,,,,,,,,5 2BACK,001,2026-05-03_05h53.36.979,untitled,,2025.1.1,60.02433386528198,2026-05-03 05h53.51.730437 +0200,
Q,2.wav,0,0,0,7,7,0,,,,,bloc_c.xlsx,None,1,,,,,,,,,,,,0,1,1,1,0,0,0,1,0,7,7,7,399.1529552000011,,,,,,,,,,,,,,,,,,,,,,,,,,,,,,,,,,,,,399.1384665000005,399.1529552000011,399.63604080000005,401.1348381000007,None,1,,,,,,,,,,,,,,,,5 2BACK,001,2026-05-03_05h53.36.979,untitled,,2025.1.1,60.02433386528198,2026-05-03 05h53.51.730437 +0200,
H,6.wav,0,0,0,8,8,0,,,,,bloc_c.xlsx,None,1,,,,,,,,,,,,0,1,1,1,0,0,0,1,0,8,8,8,401.15130690000115,,,,,,,,,,,,,,,,,,,,,,,,,,,,,,,,,,,,,401.136329500001,401.15130690000115,401.6343572000005,403.1331807000006,None,1,,,,,,,,,,,,,,,,5 2BACK,001,2026-05-03_05h53.36.979,untitled,,2025.1.1,60.02433386528198,2026-05-03 05h53.51.730437 +0200,
U,2.wav,0,1,0,9,9,0,,,,,bloc_c.xlsx,space,0,1.507167699999627,0.15065420000064478,,,,,,,,,,0,1,1,1,0,0,0,1,0,9,9,9,403.1497266000006,,,,,,,,,,,,,,,,,,,,,,,,,,,,,,,,,,,,,403.13455950000025,403.1497266000006,403.63268680000147,405.1315768000004,space,0,1.507167699999627,0.15065420000064478,,,,,,,,,,,,,,5 2BACK,001,2026-05-03_05h53.36.979,untitled,,2025.1.1,60.02433386528198,2026-05-03 05h53.51.730437 +0200,
H,3.wav,1,0,0,10,10,0,,,,,bloc_c.xlsx,space,1,1.1797055000006367,0.10276110000086192,,,,,,,,,,0,1,1,1,0,0,0,1,0,10,10,10,405.14807610000025,,,,,,,,,,,,,,,,,,,,,,,,,,,,,,,,,,,,,405.1329398000016,405.14807610000025,405.63111220000064,407.1303201999999,space,1,1.1797055000006367,0.10276110000086192,,,,,,,,,,,,,,5 2BACK,001,2026-05-03_05h53.36.979,untitled,,2025.1.1,60.02433386528198,2026-05-03 05h53.51.730437 +0200,
Z,6.wav,0,0,0,11,11,0,,,,,bloc_c.xlsx,None,1,,,,,,,,,,,,0,1,1,1,0,0,0,1,0,11,11,11,407.1464779000016,,,,,,,,,,,,,,,,,,,,,,,,,,,,,,,,,,,,,407.1316833000001,407.1464779000016,407.6294632000008,409.1280303000003,None,1,,,,,,,,,,,,,,,,5 2BACK,001,2026-05-03_05h53.36.979,untitled,,2025.1.1,60.02433386528198,2026-05-03 05h53.51.730437 +0200,
Q,2.wav,0,0,0,12,12,0,,,,,bloc_c.xlsx,None,1,,,,,,,,,,,,0,1,1,1,0,0,0,1,0,12,12,12,409.14478430000054,,,,,,,,,,,,,,,,,,,,,,,,,,,,,,,,,,,,,409.1292802000007,409.14478430000054,409.62779690000025,411.126902,None,1,,,,,,,,,,,,,,,,5 2BACK,001,2026-05-03_05h53.36.979,untitled,,2025.1.1,60.02433386528198,2026-05-03 05h53.51.730437 +0200,
Z,1.wav,1,0,0,13,13,0,,,,,bloc_c.xlsx,space,1,0.8409369000000879,0.12835269999959564,,,,,,,,,,0,1,1,1,0,0,0,1,0,13,13,13,411.1432491000014,,,,,,,,,,,,,,,,,,,,,,,,,,,,,,,,,,,,,411.12847430000147,411.1432491000014,411.6260770000008,413.141742400001,space,1,0.8409369000000879,0.12835269999959564,413.1414840000016,,,,,,,,,,,,,5 2BACK,001,2026-05-03_05h53.36.979,untitled,,2025.1.1,60.02433386528198,2026-05-03 05h53.51.730437 +0200,
N,2.wav,0,1,0,14,14,0,,,,,bloc_c.xlsx,None,1,,,,,,,,,,,,0,1,1,1,0,0,0,1,0,14,14,14,413.15807230000064,,,,,,,,,,,,,,,,,,,,,,,,,,,,,,,,,,,,,413.143122200001,413.15807230000064,413.6411409000011,415.14019610000105,None,1,,,,,,,,,,,,,,,,5 2BACK,001,2026-05-03_05h53.36.979,untitled,,2025.1.1,60.02433386528198,2026-05-03 05h53.51.730437 +0200,
U,4.wav,0,0,0,15,15,0,,,,,bloc_c.xlsx,None,1,,,,,,,,,,,,0,1,1,1,0,0,0,1,0,15,15,15,415.15639460000057,,,,,,,,,,,,,,,,,,,,,,,,,,,,,,,,,,,,,415.1419411000006,415.15639460000057,415.6393446000002,417.1384431000006,None,1,,,,,,,,,,,,,,,,5 2BACK,001,2026-05-03_05h53.36.979,untitled,,2025.1.1,60.02433386528198,2026-05-03 05h53.51.730437 +0200,
G,1.wav,0,0,0,16,16,0,,,,,bloc_c.xlsx,None,1,,,,,,,,,,,,0,1,1,1,0,0,0,1,0,16,16,16,417.1546507000003,,,,,,,,,,,,,,,,,,,,,,,,,,,,,,,,,,,,,417.1406747000001,417.1546507000003,417.63793690000057,419.1367413000007,None,1,,,,,,,,,,,,,,,,5 2BACK,001,2026-05-03_05h53.36.979,untitled,,2025.1.1,60.02433386528198,2026-05-03 05h53.51.730437 +0200,
P,5.wav,0,0,0,17,17,0,,,,,bloc_c.xlsx,None,1,,,,,,,,,,,,0,1,1,1,0,0,0,1,0,17,17,17,419.15301270000055,,,,,,,,,,,,,,,,,,,,,,,,,,,,,,,,,,,,,419.1382656000005,419.15301270000055,419.6361512000003,421.13519310000083,None,1,,,,,,,,,,,,,,,,5 2BACK,001,2026-05-03_05h53.36.979,untitled,,2025.1.1,60.02433386528198,2026-05-03 05h53.51.730437 +0200,
G,1.wav,1,1,1,18,18,0,,,,,bloc_c.xlsx,space,1,1.0893108999989636,0.16306380000060017,,,,,,,,,,0,1,1,1,0,0,0,1,0,18,18,18,421.15153380000083,,,,,,,,,,,,,,,,,,,,,,,,,,,,,,,,,,,,,421.1367902000002,421.15153380000083,421.6346248000009,423.1335959000007,space,1,1.0893108999989636,0.16306380000060017,,,,,,,,,,,,,,5 2BACK,001,2026-05-03_05h53.36.979,untitled,,2025.1.1,60.02433386528198,2026-05-03 05h53.51.730437 +0200,
C,2.wav,0,0,0,19,19,0,,,,,bloc_c.xlsx,None,1,,,,,,,,,,,,0,1,1,1,0,0,0,1,0,19,19,19,423.14994970000043,,,,,,,,,,,,,,,,,,,,,,,,,,,,,,,,,,,,,423.13492100000076,423.14994970000043,423.6327699000012,425.1318889000013,None,1,,,,,,,,,,,,,,,,5 2BACK,001,2026-05-03_05h53.36.979,untitled,,2025.1.1,60.02433386528198,2026-05-03 05h53.51.730437 +0200,
T,3.wav,0,0,0,20,20,0,,,,,bloc_c.xlsx,None,1,,,,,,,,,,,,0,1,1,1,0,0,0,1,0,20,20,20,425.14832280000155,,,,,,,,,,,,,,,,,,,,,,,,,,,,,,,,,,,,,425.1332161999999,425.14832280000155,425.6312773000009,427.13051410000116,None,1,,,,,,,,,,,,,,,,5 2BACK,001,2026-05-03_05h53.36.979,untitled,,2025.1.1,60.02433386528198,2026-05-03 05h53.51.730437 +0200,
B,2.wav,0,1,0,21,21,0,,,,,bloc_c.xlsx,None,1,,,,,,,,,,,,0,1,1,1,0,0,0,1,0,21,21,21,427.14658710000003,,,,,,,,,,,,,,,,,,,,,,,,,,,,,,,,,,,,,427.13200550000147,427.14658710000003,427.62962980000157,429.12858229999983,None,1,,,,,,,,,,,,,,,,5 2BACK,001,2026-05-03_05h53.36.979,untitled,,2025.1.1,60.02433386528198,2026-05-03 05h53.51.730437 +0200,
L,4.wav,0,0,0,22,22,0,,,,,bloc_c.xlsx,None,1,,,,,,,,,,,,0,1,1,1,0,0,0,1,0,22,22,22,429.14494060000106,,,,,,,,,,,,,,,,,,,,,,,,,,,,,,,,,,,,,429.130145000001,429.14494060000106,429.6280345000014,431.1272398000001,None,1,,,,,,,,,,,,,,,,5 2BACK,001,2026-05-03_05h53.36.979,untitled,,2025.1.1,60.02433386528198,2026-05-03 05h53.51.730437 +0200,
F,3.wav,0,0,0,23,23,0,,,,,bloc_c.xlsx,None,1,,,,,,,,,,,,0,1,1,1,0,0,0,1,0,23,23,23,431.1434272000006,,,,,,,,,,,,,,,,,,,,,,,,,,,,,,,,,,,,,431.1285305000001,431.1434272000006,431.6263648000004,433.1418991999999,None,1,,,433.1417211000007,,,,,,,,,,,,,5 2BACK,001,2026-05-03_05h53.36.979,untitled,,2025.1.1,60.02433386528198,2026-05-03 05h53.51.730437 +0200,
T,4.wav,0,1,0,24,24,0,,,,,bloc_c.xlsx,None,1,,,,,,,,,,,,0,1,1,1,0,0,0,1,0,24,24,24,433.1583531000015,,,,,,,,,,,,,,,,,,,,,,,,,,,,,,,,,,,,,433.1431769999999,433.1583531000015,433.64126209999995,435.1401788000003,None,1,,,,,,,,,,,,,,,,5 2BACK,001,2026-05-03_05h53.36.979,untitled,,2025.1.1,60.02433386528198,2026-05-03 05h53.51.730437 +0200,
F,6.wav,1,0,0,25,25,0,,,,,bloc_c.xlsx,space,1,1.2054084000010334,0.13950959999965562,,,,,,,,,,0,1,1,1,0,0,0,1,0,25,25,25,435.15672799999993,,,,,,,,,,,,,,,,,,,,,,,,,,,,,,,,,,,,,435.1421534000001,435.15672799999993,435.6394713999998,437.1385390000014,space,1,1.2054084000010334,0.13950959999965562,,,,,,,,,,,,,,5 2BACK,001,2026-05-03_05h53.36.979,untitled,,2025.1.1,60.02433386528198,2026-05-03 05h53.51.730437 +0200,
D,5.wav,0,0,0,26,26,0,,,,,bloc_c.xlsx,None,1,,,,,,,,,,,,0,1,1,1,0,0,0,1,0,26,26,26,437.1550952000016,,,,,,,,,,,,,,,,,,,,,,,,,,,,,,,,,,,,,437.1400839000016,437.1550952000016,437.6379721000012,439.136972100001,None,1,,,,,,,,,,,,,,,,5 2BACK,001,2026-05-03_05h53.36.979,untitled,,2025.1.1,60.02433386528198,2026-05-03 05h53.51.730437 +0200,
G,6.wav,0,1,0,27,27,0,,,,,bloc_c.xlsx,None,1,,,,,,,,,,,,0,1,1,1,0,0,0,1,0,27,27,27,439.1534793999999,,,,,,,,,,,,,,,,,,,,,,,,,,,,,,,,,,,,,439.1385379000003,439.1534793999999,439.6363007,441.1352383000012,None,1,,,,,,,,,,,,,,,,5 2BACK,001,2026-05-03_05h53.36.979,untitled,,2025.1.1,60.02433386528198,2026-05-03 05h53.51.730437 +0200,
E,2.wav,0,0,0,28,28,0,,,,,bloc_c.xlsx,None,1,,,,,,,,,,,,0,1,1,1,0,0,0,1,0,28,28,28,441.1517082999999,,,,,,,,,,,,,,,,,,,,,,,,,,,,,,,,,,,,,441.1366171999998,441.1517082999999,441.63460880000093,443.1338977000014,None,1,,,443.13337370000045,,,,,,,,,,,,,5 2BACK,001,2026-05-03_05h53.36.979,untitled,,2025.1.1,60.02433386528198,2026-05-03 05h53.51.730437 +0200,
G,8.wav,1,0,0,29,29,0,,,,,bloc_c.xlsx,space,1,0.8409474000000046,0.15278159999979835,,,,,,,,,,0,1,1,1,0,0,0,1,0,29,29,29,443.1501767000009,,,,,,,,,,,,,,,,,,,,,,,,,,,,,,,,,,,,,443.13516960000015,443.1501767000009,443.6330839000002,445.1319559000003,space,1,0.8409474000000046,0.15278159999979835,,,,,,,,,,,,,,5 2BACK,001,2026-05-03_05h53.36.979,untitled,,2025.1.1,60.02433386528198,2026-05-03 05h53.51.730437 +0200,
S,5.wav,0,0,0,30,30,0,,,,,bloc_c.xlsx,None,1,,,,,,,,,,,,0,1,1,1,0,0,0,1,0,30,30,30,445.14840379999987,,,,,,,,,,,,,,,,,,,,,,,,,,,,,,,,,,,,,445.1333465000007,445.14840379999987,445.63144680000005,447.13066609999987,None,1,,,,,,,,,,,,,,,,5 2BACK,001,2026-05-03_05h53.36.979,untitled,,2025.1.1,60.02433386528198,2026-05-03 05h53.51.730437 +0200,
N,1.wav,0,0,0,31,31,0,,,,,bloc_c.xlsx,None,1,,,,,,,,,,,,0,1,1,1,0,0,0,1,0,31,31,31,447.1470294999999,,,,,,,,,,,,,,,,,,,,,,,,,,,,,,,,,,,,,447.1320104000006,447.1470294999999,447.6297886000011,449.1287817000011,None,1,,,,,,,,,,,,,,,,5 2BACK,001,2026-05-03_05h53.36.979,untitled,,2025.1.1,60.02433386528198,2026-05-03 05h53.51.730437 +0200,
V,2.wav,0,0,0,32,32,0,,,,,bloc_c.xlsx,None,1,,,,,,,,,,,,0,1,1,1,0,0,0,1,0,32,32,32,449.1452711000002,,,,,,,,,,,,,,,,,,,,,,,,,,,,,,,,,,,,,449.1300712000011,449.1452711000002,449.6281581000003,451.1271110000016,None,1,,,,,,,,,,,,,,,,5 2BACK,001,2026-05-03_05h53.36.979,untitled,,2025.1.1,60.02433386528198,2026-05-03 05h53.51.730437 +0200,
X,1.wav,0,1,0,33,33,0,,,,,bloc_c.xlsx,None,1,,,,,,,,,,,,0,1,1,1,0,0,0,1,0,33,33,33,451.14352040000085,,,,,,,,,,,,,,,,,,,,,,,,,,,,,,,,,,,,,451.1283610999999,451.14352040000085,451.626540700001,453.14221480000015,None,1,,,453.14198399999987,,,,,,,,,,,,,5 2BACK,001,2026-05-03_05h53.36.979,untitled,,2025.1.1,60.02433386528198,2026-05-03 05h53.51.730437 +0200,
A,4.wav,0,0,0,34,34,0,,,,,bloc_c.xlsx,None,1,,,,,,,,,,,,0,1,1,1,0,0,0,1,0,34,34,34,453.15855890000057,,,,,,,,,,,,,,,,,,,,,,,,,,,,,,,,,,,,,453.14432660000057,453.15855890000057,453.64161590000003,455.1406450000013,None,1,,,,,,,,,,,,,,,,5 2BACK,001,2026-05-03_05h53.36.979,untitled,,2025.1.1,60.02433386528198,2026-05-03 05h53.51.730437 +0200,
R,2.wav,0,0,0,35,35,0,,,,,bloc_c.xlsx,None,1,,,,,,,,,,,,0,1,1,1,0,0,0,1,0,35,35,35,455.15684169999986,,,,,,,,,,,,,,,,,,,,,,,,,,,,,,,,,,,,,455.1419710000009,455.15684169999986,455.6400119000009,457.13916320000135,None,1,,,,,,,,,,,,,,,,5 2BACK,001,2026-05-03_05h53.36.979,untitled,,2025.1.1,60.02433386528198,2026-05-03 05h53.51.730437 +0200,
A,6.wav,1,0,0,36,36,0,,,,,bloc_c.xlsx,space,1,1.1119740000012825,0.11838819999866246,,,,,,,,,,0,1,1,1,0,0,0,1,0,36,36,36,457.15534819999993,,,,,,,,,,,,,,,,,,,,,,,,,,,,,,,,,,,,,457.14053520000016,457.15534819999993,457.6382887,459.1372784000014,space,1,1.1119740000012825,0.11838819999866246,,,,,,,,,,,,,,5 2BACK,001,2026-05-03_05h53.36.979,untitled,,2025.1.1,60.02433386528198,2026-05-03 05h53.51.730437 +0200,
U,8.wav,0,0,0,37,37,0,,,,,bloc_c.xlsx,None,1,,,,,,,,,,,,0,1,1,1,0,0,0,1,0,37,37,37,459.1536668000008,,,,,,,,,,,,,,,,,,,,,,,,,,,,,,,,,,,,,459.1387814000009,459.1536668000008,459.6366037000007,461.1355499000001,None,1,,,,,,,,,,,,,,,,5 2BACK,001,2026-05-03_05h53.36.979,untitled,,2025.1.1,60.02433386528198,2026-05-03 05h53.51.730437 +0200,
N,1.wav,0,0,0,38,38,0,,,,,bloc_c.xlsx,None,1,,,,,,,,,,,,0,1,1,1,0,0,0,1,0,38,38,38,461.15206370000124,,,,,,,,,,,,,,,,,,,,,,,,,,,,,,,,,,,,,461.13717090000137,461.15206370000124,461.6349652000008,463.1339512000013,None,1,,,,,,,,,,,,,,,,5 2BACK,001,2026-05-03_05h53.36.979,untitled,,2025.1.1,60.02433386528198,2026-05-03 05h53.51.730437 +0200,
K,3.wav,0,0,0,39,39,0,,,,,bloc_c.xlsx,None,1,,,,,,,,,,,,0,1,1,1,0,0,0,1,0,39,39,39,463.1503535000011,,,,,,,,,,,,,,,,,,,,,,,,,,,,,,,,,,,,,463.1353695000016,463.1503535000011,463.6334015000011,465.13264020000133,None,1,,,,,,,,,,,,,,,,5 2BACK,001,2026-05-03_05h53.36.979,untitled,,2025.1.1,60.02433386528198,2026-05-03 05h53.51.730437 +0200,
N,1.wav,1,1,1,40,40,0,,,,,bloc_c.xlsx,space,1,0.8567040000016277,0.14705899999898975,,,,,,,,,,0,1,1,1,0,0,0,1,0,40,40,40,465.1488179000007,,,,,,,,,,,,,,,,,,,,,,,,,,,,,,,,,,,,,465.13410060000024,465.1488179000007,465.63184230000115,467.1307958000016,space,1,0.8567040000016277,0.14705899999898975,,,,,,,,,,,,,,5 2BACK,001,2026-05-03_05h53.36.979,untitled,,2025.1.1,60.02433386528198,2026-05-03 05h53.51.730437 +0200,
P,8.wav,0,0,0,41,41,0,,,,,bloc_c.xlsx,None,1,,,,,,,,,,,,0,1,1,1,0,0,0,1,0,41,41,41,467.14712529999997,,,,,,,,,,,,,,,,,,,,,,,,,,,,,,,,,,,,,467.1322717000003,467.14712529999997,467.63013560000036,469.1291261000006,None,1,,,,,,,,,,,,,,,,5 2BACK,001,2026-05-03_05h53.36.979,untitled,,2025.1.1,60.02433386528198,2026-05-03 05h53.51.730437 +0200,
G,2.wav,0,0,0,42,42,0,,,,,bloc_c.xlsx,None,1,,,,,,,,,,,,0,1,1,1,0,0,0,1,0,42,42,42,469.14544770000066,,,,,,,,,,,,,,,,,,,,,,,,,,,,,,,,,,,,,469.13057220000155,469.14544770000066,469.62850940000135,471.1272921,None,1,,,,,,,,,,,,,,,,5 2BACK,001,2026-05-03_05h53.36.979,untitled,,2025.1.1,60.02433386528198,2026-05-03 05h53.51.730437 +0200,
Q,4.wav,0,0,0,43,43,0,,,,,bloc_c.xlsx,None,1,,,,,,,,,,,,0,1,1,1,0,0,0,1,0,43,43,43,471.143739000001,,,,,,,,,,,,,,,,,,,,,,,,,,,,,,,,,,,,,471.12881259999995,471.143739000001,471.62678980000055,473.1425100000015,None,1,,,473.1422825000009,,,,,,,,,,,,,5 2BACK,001,2026-05-03_05h53.36.979,untitled,,2025.1.1,60.02433386528198,2026-05-03 05h53.51.730437 +0200,
B,6.wav,0,0,0,44,44,0,,,,,bloc_c.xlsx,None,1,,,,,,,,,,,,0,1,1,1,0,0,0,1,0,44,44,44,473.1588599000006,,,,,,,,,,,,,,,,,,,,,,,,,,,,,,,,,,,,,473.1437923000012,473.1588599000006,473.6417799999999,475.14086620000126,None,1,,,,,,,,,,,,,,,,5 2BACK,001,2026-05-03_05h53.36.979,untitled,,2025.1.1,60.02433386528198,2026-05-03 05h53.51.730437 +0200,
Q,2.wav,1,0,0,45,45,0,,,,,bloc_c.xlsx,space,1,1.1369286999997712,0.14158039999892935,,,,,,,,,,0,1,1,1,0,0,0,1,0,45,45,45,475.1571421000008,,,,,,,,,,,,,,,,,,,,,,,,,,,,,,,,,,,,,475.1422261000007,475.1571421000008,475.64018730000134,477.1390276000002,space,1,1.1369286999997712,0.14158039999892935,,,,,,,,,,,,,,5 2BACK,001,2026-05-03_05h53.36.979,untitled,,2025.1.1,60.02433386528198,2026-05-03 05h53.51.730437 +0200,
E,3.wav,0,0,0,46,46,0,,,,,bloc_c.xlsx,None,1,,,,,,,,,,,,0,1,1,1,0,0,0,1,0,46,46,46,477.15551460000097,,,,,,,,,,,,,,,,,,,,,,,,,,,,,,,,,,,,,477.1403719000009,477.15551460000097,477.6383796000009,479.1376693000002,None,1,,,,,,,,,,,,,,,,5 2BACK,001,2026-05-03_05h53.36.979,untitled,,2025.1.1,60.02433386528198,2026-05-03 05h53.51.730437 +0200,
U,2.wav,0,1,0,47,47,0,,,,,bloc_c.xlsx,None,1,,,,,,,,,,,,0,1,1,1,0,0,0,1,0,47,47,47,479.1536754000008,,,,,,,,,,,,,,,,,,,,,,,,,,,,,,,,,,,,,479.13890640000136,479.1536754000008,479.6368304000007,481.13591690000067,None,1,,,,,,,,,,,,,,,,5 2BACK,001,2026-05-03_05h53.36.979,untitled,,2025.1.1,60.02433386528198,2026-05-03 05h53.51.730437 +0200,
D,4.wav,0,0,0,48,48,0,,,,,bloc_c.xlsx,None,1,,,,,,,,,,,,0,1,1,1,0,0,0,1,0,48,48,48,481.1520897999999,,,,,,,,,,,,,,,,,,,,,,,,,,,,,,,,,,,,,481.1376482000014,481.1520897999999,481.63500680000107,483.13441779999994,None,1,,,,,,,,,,,,,,,,5 2BACK,001,2026-05-03_05h53.36.979,untitled,,2025.1.1,60.02433386528198,2026-05-03 05h53.51.730437 +0200,
W,6.wav,0,0,0,49,49,0,,,,,bloc_c.xlsx,space,0,0.984568500000023,0.14850159999878088,,,,,,,,,,0,1,1,1,0,0,0,1,0,49,49,49,483.15034520000154,,,,,,,,,,,,,,,,,,,,,,,,,,,,,,,,,,,,,483.1360764000001,483.15034520000154,483.6335058000004,485.13253840000107,space,0,0.984568500000023,0.14850159999878088,,,,,,,,,,,,,,5 2BACK,001,2026-05-03_05h53.36.979,untitled,,2025.1.1,60.02433386528198,2026-05-03 05h53.51.730437 +0200,
,,,,,0,0,0,,,,,bloc_c.xlsx,,,,,,,,,,,,,,0,1,1,1,0,0,0,1,,,,,,,,,,,,,,,,,,,,,,,,,,,,,,,,,,,,,,,,,,,,,,,,,,,,,,,,,,,,,,,5 2BACK,001,2026-05-03_05h53.36.979,untitled,,2025.1.1,60.02433386528198,2026-05-03 05h53.51.730437 +0200,
P,3.wav,0,0,0,0,0,0,,,,,bloc_b.xlsx,None,1,,,,,,,,,,,,0,1,1,1,0,1,1,2,0,0,0,0,485.1495352000002,,,,,,,,,,,,,,,,,,,,,,,,,,,,,,,,,,,,,485.1479994000001,485.1495352000002,485.6320575999998,487.1312203000016,None,1,,,,,,,,,,,,,,,,5 2BACK,001,2026-05-03_05h53.36.979,untitled,,2025.1.1,60.02433386528198,2026-05-03 05h53.51.730437 +0200,
N,1.wav,0,0,0,1,1,0,,,,,bloc_b.xlsx,None,1,,,,,,,,,,,,0,1,1,1,0,1,1,2,0,1,1,1,487.14722560000155,,,,,,,,,,,,,,,,,,,,,,,,,,,,,,,,,,,,,487.13300680000066,487.14722560000155,487.63028850000046,489.1292194000016,None,1,,,,,,,,,,,,,,,,5 2BACK,001,2026-05-03_05h53.36.979,untitled,,2025.1.1,60.02433386528198,2026-05-03 05h53.51.730437 +0200,
U,2.wav,0,0,0,2,2,0,,,,,bloc_b.xlsx,None,1,,,,,,,,,,,,0,1,1,1,0,1,1,2,0,2,2,2,489.1456211000004,,,,,,,,,,,,,,,,,,,,,,,,,,,,,,,,,,,,,489.1304542000016,489.1456211000004,489.6286321000007,491.1275888,None,1,,,,,,,,,,,,,,,,5 2BACK,001,2026-05-03_05h53.36.979,untitled,,2025.1.1,60.02433386528198,2026-05-03 05h53.51.730437 +0200,
J,6.wav,0,0,0,3,3,0,,,,,bloc_b.xlsx,None,1,,,,,,,,,,,,0,1,1,1,0,1,1,2,0,3,3,3,491.1439078000003,,,,,,,,,,,,,,,,,,,,,,,,,,,,,,,,,,,,,491.1288196000005,491.1439078000003,491.6269570000004,493.142461200001,None,1,,,493.1256039,,,,,,,,,,,,,5 2BACK,001,2026-05-03_05h53.36.979,untitled,,2025.1.1,60.02433386528198,2026-05-03 05h53.51.730437 +0200,
U,2.wav,1,1,1,4,4,0,,,,,bloc_b.xlsx,space,1,1.1142710000003717,0.17213550000087707,,,,,,,,,,0,1,1,1,0,1,1,2,0,4,4,4,493.15918560000136,,,,,,,,,,,,,,,,,,,,,,,,,,,,,,,,,,,,,493.1438511000015,493.15918560000136,493.6418377000009,495.14089260000037,space,1,1.1142710000003717,0.17213550000087707,495.14067240000077,,,,,,,,,,,,,5 2BACK,001,2026-05-03_05h53.36.979,untitled,,2025.1.1,60.02433386528198,2026-05-03 05h53.51.730437 +0200,
F,8.wav,0,0,0,5,5,0,,,,,bloc_b.xlsx,None,1,,,,,,,,,,,,0,1,1,1,0,1,1,2,0,5,5,5,495.1572425000013,,,,,,,,,,,,,,,,,,,,,,,,,,,,,,,,,,,,,495.1421379000003,495.1572425000013,495.6413599000007,497.13943740000104,None,1,,,,,,,,,,,,,,,,5 2BACK,001,2026-05-03_05h53.36.979,untitled,,2025.1.1,60.02433386528198,2026-05-03 05h53.51.730437 +0200,
V,5.wav,0,0,0,6,6,0,,,,,bloc_b.xlsx,None,1,,,,,,,,,,,,0,1,1,1,0,1,1,2,0,6,6,6,497.15569790000154,,,,,,,,,,,,,,,,,,,,,,,,,,,,,,,,,,,,,497.1409818000011,497.15569790000154,497.6385680000003,499.13747950000106,None,1,,,,,,,,,,,,,,,,5 2BACK,001,2026-05-03_05h53.36.979,untitled,,2025.1.1,60.02433386528198,2026-05-03 05h53.51.730437 +0200,
F,7.wav,1,0,0,7,7,0,,,,,bloc_b.xlsx,space,1,1.0723063999994338,0.15922049999971932,,,,,,,,,,0,1,1,1,0,1,1,2,0,7,7,7,499.15416090000144,,,,,,,,,,,,,,,,,,,,,,,,,,,,,,,,,,,,,499.1388076000003,499.15416090000144,499.6369403000008,501.1360764000001,space,1,1.0723063999994338,0.15922049999971932,,,,,,,,,,,,,,5 2BACK,001,2026-05-03_05h53.36.979,untitled,,2025.1.1,60.02433386528198,2026-05-03 05h53.51.730437 +0200,
P,2.wav,0,0,0,8,8,0,,,,,bloc_b.xlsx,None,1,,,,,,,,,,,,0,1,1,1,0,1,1,2,0,8,8,8,501.15244990000065,,,,,,,,,,,,,,,,,,,,,,,,,,,,,,,,,,,,,501.1380777000013,501.15244990000065,501.635351500001,503.13425690000076,None,1,,,503.1341009000007,,,,,,,,,,,,,5 2BACK,001,2026-05-03_05h53.36.979,untitled,,2025.1.1,60.02433386528198,2026-05-03 05h53.51.730437 +0200,
N,7.wav,0,1,0,9,9,0,,,,,bloc_b.xlsx,None,1,,,,,,,,,,,,0,1,1,1,0,1,1,2,0,9,9,9,503.1509042000016,,,,,,,,,,,,,,,,,,,,,,,,,,,,,,,,,,,,,503.13605460000144,503.1509042000016,503.63371090000146,505.1327443000009,None,1,,,,,,,,,,,,,,,,5 2BACK,001,2026-05-03_05h53.36.979,untitled,,2025.1.1,60.02433386528198,2026-05-03 05h53.51.730437 +0200,
C,5.wav,0,0,0,10,10,0,,,,,bloc_b.xlsx,None,1,,,,,,,,,,,,0,1,1,1,0,1,1,2,0,10,10,10,505.1491272000003,,,,,,,,,,,,,,,,,,,,,,,,,,,,,,,,,,,,,505.1342050000003,505.1491272000003,505.6320444000012,507.13106470000093,None,1,,,,,,,,,,,,,,,,5 2BACK,001,2026-05-03_05h53.36.979,untitled,,2025.1.1,60.02433386528198,2026-05-03 05h53.51.730437 +0200,
L,6.wav,0,0,0,11,11,0,,,,,bloc_b.xlsx,None,1,,,,,,,,,,,,0,1,1,1,0,1,1,2,0,11,11,11,507.147565700001,,,,,,,,,,,,,,,,,,,,,,,,,,,,,,,,,,,,,507.13250340000013,507.147565700001,507.6302977000014,509.1290718,None,1,,,,,,,,,,,,,,,,5 2BACK,001,2026-05-03_05h53.36.979,untitled,,2025.1.1,60.02433386528198,2026-05-03 05h53.51.730437 +0200,
E,1.wav,0,0,0,12,12,0,,,,,bloc_b.xlsx,None,1,,,,,,,,,,,,0,1,1,1,0,1,1,2,0,12,12,12,509.14583400000083,,,,,,,,,,,,,,,,,,,,,,,,,,,,,,,,,,,,,509.1307132000002,509.14583400000083,509.6286573000016,511.1276353000012,None,1,,,,,,,,,,,,,,,,5 2BACK,001,2026-05-03_05h53.36.979,untitled,,2025.1.1,60.02433386528198,2026-05-03 05h53.51.730437 +0200,
K,5.wav,0,0,0,13,13,0,,,,,bloc_b.xlsx,None,1,,,,,,,,,,,,0,1,1,1,0,1,1,2,0,13,13,13,511.1442326000015,,,,,,,,,,,,,,,,,,,,,,,,,,,,,,,,,,,,,511.1290452000012,511.1442326000015,511.62709429999995,513.142865400001,None,1,,,513.1426308000009,,,,,,,,,,,,,5 2BACK,001,2026-05-03_05h53.36.979,untitled,,2025.1.1,60.02433386528198,2026-05-03 05h53.51.730437 +0200,
E,1.wav,1,1,1,14,14,0,,,,,bloc_b.xlsx,space,1,0.8430989999997109,0.11252199999944423,,,,,,,,,,0,1,1,1,0,1,1,2,0,14,14,14,513.1593776999998,,,,,,,,,,,,,,,,,,,,,,,,,,,,,,,,,,,,,513.1445870000007,513.1593776999998,513.6422675000013,515.1411029999999,space,1,0.8430989999997109,0.11252199999944423,,,,,,,,,,,,,,5 2BACK,001,2026-05-03_05h53.36.979,untitled,,2025.1.1,60.02433386528198,2026-05-03 05h53.51.730437 +0200,
U,7.wav,0,0,0,15,15,0,,,,,bloc_b.xlsx,None,1,,,,,,,,,,,,0,1,1,1,0,1,1,2,0,15,15,15,515.1576763000012,,,,,,,,,,,,,,,,,,,,,,,,,,,,,,,,,,,,,515.1423758000001,515.1576763000012,515.6406024000007,517.1394849000008,None,1,,,,,,,,,,,,,,,,5 2BACK,001,2026-05-03_05h53.36.979,untitled,,2025.1.1,60.02433386528198,2026-05-03 05h53.51.730437 +0200,
X,3.wav,0,0,0,16,16,0,,,,,bloc_b.xlsx,None,1,,,,,,,,,,,,0,1,1,1,0,1,1,2,0,16,16,16,517.1559769000014,,,,,,,,,,,,,,,,,,,,,,,,,,,,,,,,,,,,,517.1408807000007,517.1559769000014,517.6388760999998,519.1379278000004,None,1,,,,,,,,,,,,,,,,5 2BACK,001,2026-05-03_05h53.36.979,untitled,,2025.1.1,60.02433386528198,2026-05-03 05h53.51.730437 +0200,
L,4.wav,0,0,0,17,17,0,,,,,bloc_b.xlsx,None,1,,,,,,,,,,,,0,1,1,1,0,1,1,2,0,17,17,17,519.1544227000013,,,,,,,,,,,,,,,,,,,,,,,,,,,,,,,,,,,,,519.1394894000005,519.1544227000013,519.6373236,521.1362507000013,None,1,,,,,,,,,,,,,,,,5 2BACK,001,2026-05-03_05h53.36.979,untitled,,2025.1.1,60.02433386528198,2026-05-03 05h53.51.730437 +0200,
B,3.wav,0,1,0,18,18,0,,,,,bloc_b.xlsx,None,1,,,,,,,,,,,,0,1,1,1,0,1,1,2,0,18,18,18,521.1527289000005,,,,,,,,,,,,,,,,,,,,,,,,,,,,,,,,,,,,,521.1383129000005,521.1527289000005,521.6356133000008,523.1349084000012,None,1,,,,,,,,,,,,,,,,5 2BACK,001,2026-05-03_05h53.36.979,untitled,,2025.1.1,60.02433386528198,2026-05-03 05h53.51.730437 +0200,
L,5.wav,1,0,0,19,19,0,,,,,bloc_b.xlsx,None,0,,,,,,,,,,,,0,1,1,1,0,1,1,2,0,19,19,19,523.1510160000016,,,,,,,,,,,,,,,,,,,,,,,,,,,,,,,,,,,,,523.1367354000013,523.1510160000016,523.634430600001,525.1327779000003,None,0,,,,,,,,,,,,,,,,5 2BACK,001,2026-05-03_05h53.36.979,untitled,,2025.1.1,60.02433386528198,2026-05-03 05h53.51.730437 +0200,
Q,2.wav,0,0,0,20,20,0,,,,,bloc_b.xlsx,None,1,,,,,,,,,,,,0,1,1,1,0,1,1,2,0,20,20,20,525.1492466,,,,,,,,,,,,,,,,,,,,,,,,,,,,,,,,,,,,,525.1343193000012,525.1492466,525.632362100001,527.1312842000007,None,1,,,,,,,,,,,,,,,,5 2BACK,001,2026-05-03_05h53.36.979,untitled,,2025.1.1,60.02433386528198,2026-05-03 05h53.51.730437 +0200,
B,7.wav,0,0,0,21,21,0,,,,,bloc_b.xlsx,None,1,,,,,,,,,,,,0,1,1,1,0,1,1,2,0,21,21,21,527.1479027000005,,,,,,,,,,,,,,,,,,,,,,,,,,,,,,,,,,,,,527.1328973,527.1479027000005,527.6308239999998,529.1296089000007,None,1,,,,,,,,,,,,,,,,5 2BACK,001,2026-05-03_05h53.36.979,untitled,,2025.1.1,60.02433386528198,2026-05-03 05h53.51.730437 +0200,
W,1.wav,0,0,0,22,22,0,,,,,bloc_b.xlsx,None,1,,,,,,,,,,,,0,1,1,1,0,1,1,2,0,22,22,22,529.1461506000014,,,,,,,,,,,,,,,,,,,,,,,,,,,,,,,,,,,,,529.1313817999999,529.1461506000014,529.6291306000003,531.1279408000009,None,1,,,,,,,,,,,,,,,,5 2BACK,001,2026-05-03_05h53.36.979,untitled,,2025.1.1,60.02433386528198,2026-05-03 05h53.51.730437 +0200,
B,5.wav,1,0,0,23,23,0,,,,,bloc_b.xlsx,space,1,0.9944842999993853,0.3502841999998054,,,,,,,,,,0,1,1,1,0,1,1,2,0,23,23,23,531.144562200001,,,,,,,,,,,,,,,,,,,,,,,,,,,,,,,,,,,,,531.1292893000009,531.144562200001,531.6274452000016,533.143049100001,space,1,0.9944842999993853,0.3502841999998054,533.1428915000015,,,,,,,,,,,,,5 2BACK,001,2026-05-03_05h53.36.979,untitled,,2025.1.1,60.02433386528198,2026-05-03 05h53.51.730437 +0200,
P,1.wav,0,1,0,24,24,0,,,,,bloc_b.xlsx,None,1,,,,,,,,,,,,0,1,1,1,0,1,1,2,0,24,24,24,533.1594313000005,,,,,,,,,,,,,,,,,,,,,,,,,,,,,,,,,,,,,533.1444509000012,533.1594313000005,533.6257903000005,535.1414343000015,None,1,,,535.1411628000005,,,,,,,,,,,,,5 2BACK,001,2026-05-03_05h53.36.979,untitled,,2025.1.1,60.02433386528198,2026-05-03 05h53.51.730437 +0200,
L,7.wav,0,0,0,25,25,0,,,,,bloc_b.xlsx,None,1,,,,,,,,,,,,0,1,1,1,0,1,1,2,0,25,25,25,535.1578913000012,,,,,,,,,,,,,,,,,,,,,,,,,,,,,,,,,,,,,535.1430719,535.1578913000012,535.6409033,537.139625400001,None,1,,,,,,,,,,,,,,,,5 2BACK,001,2026-05-03_05h53.36.979,untitled,,2025.1.1,60.02433386528198,2026-05-03 05h53.51.730437 +0200,
D,6.wav,0,0,0,26,26,0,,,,,bloc_b.xlsx,None,1,,,,,,,,,,,,0,1,1,1,0,1,1,2,0,26,26,26,537.1559493000004,,,,,,,,,,,,,,,,,,,,,,,,,,,,,,,,,,,,,537.141322200001,537.1559493000004,537.6390113000016,539.1381601000012,None,1,,,539.1379054000008,,,,,,,,,,,,,5 2BACK,001,2026-05-03_05h53.36.979,untitled,,2025.1.1,60.02433386528198,2026-05-03 05h53.51.730437 +0200,
S,3.wav,0,0,0,27,27,0,,,,,bloc_b.xlsx,None,1,,,,,,,,,,,,0,1,1,1,0,1,1,2,0,27,27,27,539.1545652000004,,,,,,,,,,,,,,,,,,,,,,,,,,,,,,,,,,,,,539.139514800001,539.1545652000004,539.6374578000014,541.1365975000008,None,1,,,,,,,,,,,,,,,,5 2BACK,001,2026-05-03_05h53.36.979,untitled,,2025.1.1,60.02433386528198,2026-05-03 05h53.51.730437 +0200,
W,8.wav,0,0,0,28,28,0,,,,,bloc_b.xlsx,None,1,,,,,,,,,,,,0,1,1,1,0,1,1,2,0,28,28,28,541.1526119999999,,,,,,,,,,,,,,,,,,,,,,,,,,,,,,,,,,,,,541.1380537000005,541.1526119999999,541.6357285000013,543.1348291000013,None,1,,,,,,,,,,,,,,,,5 2BACK,001,2026-05-03_05h53.36.979,untitled,,2025.1.1,60.02433386528198,2026-05-03 05h53.51.730437 +0200,
L,3.wav,0,1,0,29,29,0,,,,,bloc_b.xlsx,None,1,,,,,,,,,,,,0,1,1,1,0,1,1,2,0,29,29,29,543.1510124000015,,,,,,,,,,,,,,,,,,,,,,,,,,,,,,,,,,,,,543.1363234,543.1510124000015,543.6342565000014,545.1330271000006,None,1,,,,,,,,,,,,,,,,5 2BACK,001,2026-05-03_05h53.36.979,untitled,,2025.1.1,60.02433386528198,2026-05-03 05h53.51.730437 +0200,
W,6.wav,1,0,0,30,30,0,,,,,bloc_b.xlsx,space,1,0.9743817999988096,0.12399320000076841,,,,,,,,,,0,1,1,1,0,1,1,2,0,30,30,30,545.1494272,,,,,,,,,,,,,,,,,,,,,,,,,,,,,,,,,,,,,545.1343283000006,545.1494272,545.6326073,547.1315063000002,space,1,0.9743817999988096,0.12399320000076841,,,,,,,,,,,,,,5 2BACK,001,2026-05-03_05h53.36.979,untitled,,2025.1.1,60.02433386528198,2026-05-03 05h53.51.730437 +0200,
H,1.wav,0,0,0,31,31,0,,,,,bloc_b.xlsx,None,1,,,,,,,,,,,,0,1,1,1,0,1,1,2,0,31,31,31,547.1479147000009,,,,,,,,,,,,,,,,,,,,,,,,,,,,,,,,,,,,,547.1328463999998,547.1479147000009,547.6309357000009,549.129801000001,None,1,,,,,,,,,,,,,,,,5 2BACK,001,2026-05-03_05h53.36.979,untitled,,2025.1.1,60.02433386528198,2026-05-03 05h53.51.730437 +0200,
Y,4.wav,0,0,0,32,32,0,,,,,bloc_b.xlsx,None,1,,,,,,,,,,,,0,1,1,1,0,1,1,2,0,32,32,32,549.1462822000012,,,,,,,,,,,,,,,,,,,,,,,,,,,,,,,,,,,,,549.1315212000009,549.1462822000012,549.6292309,551.128233200001,None,1,,,,,,,,,,,,,,,,5 2BACK,001,2026-05-03_05h53.36.979,untitled,,2025.1.1,60.02433386528198,2026-05-03 05h53.51.730437 +0200,
R,1.wav,0,1,0,33,33,0,,,,,bloc_b.xlsx,None,1,,,,,,,,,,,,0,1,1,1,0,1,1,2,0,33,33,33,551.1445867000002,,,,,,,,,,,,,,,,,,,,,,,,,,,,,,,,,,,,,551.1296574000007,551.1445867000002,551.6276816999998,553.1432678000001,None,1,,,553.1428936000011,,,,,,,,,,,,,5 2BACK,001,2026-05-03_05h53.36.979,untitled,,2025.1.1,60.02433386528198,2026-05-03 05h53.51.730437 +0200,
J,8.wav,0,0,0,34,34,0,,,,,bloc_b.xlsx,None,1,,,,,,,,,,,,0,1,1,1,0,1,1,2,0,34,34,34,553.1598279999998,,,,,,,,,,,,,,,,,,,,,,,,,,,,,,,,,,,,,553.1446919000009,553.1598279999998,553.6261107999999,555.1414779000006,None,1,,,555.1412869000014,,,,,,,,,,,,,5 2BACK,001,2026-05-03_05h53.36.979,untitled,,2025.1.1,60.02433386528198,2026-05-03 05h53.51.730437 +0200,
R,5.wav,1,0,0,35,35,0,,,,,bloc_b.xlsx,space,1,1.8563946000012947,0.10642550000011397,,,,,,,,,,0,1,1,1,0,1,1,2,0,35,35,35,555.1580528000013,,,,,,,,,,,,,,,,,,,,,,,,,,,,,,,,,,,,,555.1433887000003,555.1580528000013,555.6409013000011,557.1399114000014,space,1,1.8563946000012947,0.10642550000011397,,,,,,,,,,,,,,5 2BACK,001,2026-05-03_05h53.36.979,untitled,,2025.1.1,60.02433386528198,2026-05-03 05h53.51.730437 +0200,
S,2.wav,0,0,0,36,36,0,,,,,bloc_b.xlsx,None,1,,,,,,,,,,,,0,1,1,1,0,1,1,2,0,36,36,36,557.156383900001,,,,,,,,,,,,,,,,,,,,,,,,,,,,,,,,,,,,,557.1413309,557.156383900001,557.6391698000007,559.1381280000005,None,1,,,,,,,,,,,,,,,,5 2BACK,001,2026-05-03_05h53.36.979,untitled,,2025.1.1,60.02433386528198,2026-05-03 05h53.51.730437 +0200,
W,5.wav,0,1,0,37,37,0,,,,,bloc_b.xlsx,None,1,,,,,,,,,,,,0,1,1,1,0,1,1,2,0,37,37,37,559.1546823000008,,,,,,,,,,,,,,,,,,,,,,,,,,,,,,,,,,,,,559.1394064000015,559.1546823000008,559.6374200999999,561.1365253000004,None,1,,,561.1361488000002,,,,,,,,,,,,,5 2BACK,001,2026-05-03_05h53.36.979,untitled,,2025.1.1,60.02433386528198,2026-05-03 05h53.51.730437 +0200,
S,8.wav,1,0,0,38,38,0,,,,,bloc_b.xlsx,space,1,1.0800869000013336,0.12742969999999332,,,,,,,,,,0,1,1,1,0,1,1,2,0,38,38,38,561.1531561000011,,,,,,,,,,,,,,,,,,,,,,,,,,,,,,,,,,,,,561.1379744000005,561.1531561000011,561.636025400001,563.1349258000009,space,1,1.0800869000013336,0.12742969999999332,,,,,,,,,,,,,,5 2BACK,001,2026-05-03_05h53.36.979,untitled,,2025.1.1,60.02433386528198,2026-05-03 05h53.51.730437 +0200,
V,1.wav,0,0,0,39,39,0,,,,,bloc_b.xlsx,None,1,,,,,,,,,,,,0,1,1,1,0,1,1,2,0,39,39,39,563.1514462000014,,,,,,,,,,,,,,,,,,,,,,,,,,,,,,,,,,,,,563.1363345000009,563.1514462000014,563.6342199999999,565.1331815000012,None,1,,,,,,,,,,,,,,,,5 2BACK,001,2026-05-03_05h53.36.979,untitled,,2025.1.1,60.02433386528198,2026-05-03 05h53.51.730437 +0200,
M,4.wav,0,0,0,40,40,0,,,,,bloc_b.xlsx,space,0,0.6311559999994643,0.09933230000024196,,,,,,,,,,0,1,1,1,0,1,1,2,0,40,40,40,565.1497311000003,,,,,,,,,,,,,,,,,,,,,,,,,,,,,,,,,,,,,565.1345622000008,565.1497311000003,565.632730700001,567.131620600001,space,0,0.6311559999994643,0.09933230000024196,,,,,,,,,,,,,,5 2BACK,001,2026-05-03_05h53.36.979,untitled,,2025.1.1,60.02433386528198,2026-05-03 05h53.51.730437 +0200,
H,5.wav,0,0,0,41,41,0,,,,,bloc_b.xlsx,None,1,,,,,,,,,,,,0,1,1,1,0,1,1,2,0,41,41,41,567.1482214000007,,,,,,,,,,,,,,,,,,,,,,,,,,,,,,,,,,,,,567.1328983000003,567.1482214000007,567.6310649000006,569.1300705000012,None,1,,,,,,,,,,,,,,,,5 2BACK,001,2026-05-03_05h53.36.979,untitled,,2025.1.1,60.02433386528198,2026-05-03 05h53.51.730437 +0200,
S,2.wav,0,0,0,42,42,0,,,,,bloc_b.xlsx,space,0,1.675444200000129,0.12321160000101372,,,,,,,,,,0,1,1,1,0,1,1,2,0,42,42,42,569.1465695000006,,,,,,,,,,,,,,,,,,,,,,,,,,,,,,,,,,,,,569.1313441000002,569.1465695000006,569.6292928000003,571.128203100001,space,0,1.675444200000129,0.12321160000101372,,,,,,,,,,,,,,5 2BACK,001,2026-05-03_05h53.36.979,untitled,,2025.1.1,60.02433386528198,2026-05-03 05h53.51.730437 +0200,
