stimulus,sound_file,letter_isTarget,sound_isTarget,dual_target,thisN,thisTrialN,thisRepN,key_aud_2.keys,key_aud_2.corr,key_vis_2.keys,key_vis_2.corr,key_aud_2.rt,key_aud_2.duration,key_vis_2.rt,key_vis_2.duration,cond_file,key_vis.keys,key_vis.corr,key_aud.keys,key_aud.corr,key_aud.rt,key_aud.duration,key_vis.rt,key_vis.duration,RSME_ticks.response,RSME_ticks.rt,button_next_11.numClicks,button_next_11.timesOn,button_next_11.timesOff,practice_trials_2.thisRepN,practice_trials_2.thisTrialN,practice_trials_2.thisN,practice_trials_2.thisIndex,blocs_loops.thisRepN,blocs_loops.thisTrialN,blocs_loops.thisN,blocs_loops.thisIndex,sequence_of_trials_X3.thisRepN,sequence_of_trials_X3.thisTrialN,sequence_of_trials_X3.thisN,sequence_of_trials_X3.thisIndex,trials_X50.thisRepN,trials_X50.thisTrialN,trials_X50.thisN,trials_X50.thisIndex,thisRow.t,notes,INIT_LSL.started,text_init.started,text_init.stopped,INIT_LSL.stopped,init.started,text_6.started,key_resp_5.started,init.stopped,key_resp_5.keys,key_resp_5.rt,key_resp_5.duration,instructions.started,text_5.started,key_resp_3.started,instructions.stopped,key_resp_3.keys,key_resp_3.rt,key_resp_3.duration,practice_trial.started,key_aud_2.started,key_vis_2.started,Feedback_vis.started,Feedback_aud.started,text_2.started,sound_2.started,sound_2.stopped,text_2.stopped,practice_trial.stopped,practice_trials_2.key_aud_2.keys,practice_trials_2.key_aud_2.corr,practice_trials_2.key_vis_2.keys,practice_trials_2.key_vis_2.corr,practice_trials_2.key_aud_2.rt,practice_trials_2.key_aud_2.duration,practice_trials_2.key_vis_2.rt,practice_trials_2.key_vis_2.duration,instructions_finale.started,text_4.started,key_resp_4.started,instructions_finale.stopped,key_resp_4.keys,key_resp_4.rt,key_resp_4.duration,trial.started,key_vis.started,key_aud.started,text.started,sound_1.started,sound_1.stopped,trial.stopped,trials_X50.key_vis.keys,trials_X50.key_vis.corr,trials_X50.key_aud.keys,trials_X50.key_aud.corr,trials_X50.key_aud.rt,trials_X50.key_aud.duration,trials_X50.key_vis.rt,trials_X50.key_vis.duration,text.stopped,KSS_POST_BLOCK.started,RSME_labels.started,RSME_ticks.started,RSME_text.started,answer1_text.started,button_next_11.started,KSS_POST_BLOCK.stopped,blocs_loops.RSME_ticks.response,blocs_loops.RSME_ticks.rt,blocs_loops.button_next_11.numClicks,blocs_loops.button_next_11.timesOn,blocs_loops.button_next_11.timesOff,merci.started,text_7.started,text_7.stopped,merci.stopped,participant,session,date,expName,expVersion,psychopyVersion,frameRate,expStart,
,,,,,,,,,,,,,,,,,,,,,,,,,,,,,,,,,,,,,,,,,,,,,,,,0.003042500000447035,0.005874800001038238,1.01541960000759,0.9990798000071663,,,,,,,,,,,,,,,,,,,,,,,,,,,,,,,,,,,,,,,,,,,,,,,,,,,,,,,,,,,,,,,,,,,,,,,,1 - DUAL,001,2026-05-05_11h17.28.796,untitled,,2025.1.1,60.00193206295381,2026-05-05 11h17.40.349744 +0200,
,,,,,,,,,,,,,,,,,,,,,,,,,,,,,,,,,,,,,,,,,,,,,,,,,,,,0.9991080000036163,1.01541960000759,1.01541960000759,17.059911800010013,space,16.03150040000037,None,,,,,,,,,,,,,,,,,,,,,,,,,,,,,,,,,,,,,,,,,,,,,,,,,,,,,,,,,,,,,,,,,1 - DUAL,001,2026-05-05_11h17.28.796,untitled,,2025.1.1,60.00193206295381,2026-05-05 11h17.40.349744 +0200,
,,,,,,,,,,,,,,,,,,,,,,,,,,,,,,,,,,,,,,,,,,,,,,,,,,,,,,,,,,,17.059958600002574,17.076075300006778,17.076075300006778,22.92159030000039,space,5.831237399994279,None,,,,,,,,,,,,,,,,,,,,,,,,,,,,,,,,,,,,,,,,,,,,,,,,,,,,,,,,,,1 - DUAL,001,2026-05-05_11h17.28.796,untitled,,2025.1.1,60.00193206295381,2026-05-05 11h17.40.349744 +0200,
L,1.wav,0,0,0,0,0,0,None,1,None,1,,,,,,,,,,,,,,,,,,,0,0,0,0,,,,,,,,,,,,,22.93831090000458,,,,,,,,,,,,,,,,,,,,22.93543569999747,22.93831090000458,22.93831090000458,22.93831090000458,22.93831090000458,23.42103510000743,23.42088166666896,23.93728959999862,24.93647250000504,24.936789700004738,None,1,None,1,,,,,,,,,,,,,,,,,,,,,,,,,,,,,,,,,,,,,,,,,,,,1 - DUAL,001,2026-05-05_11h17.28.796,untitled,,2025.1.1,60.00193206295381,2026-05-05 11h17.40.349744 +0200,
M,2.wav,0,0,0,1,1,0,None,1,None,1,,,,,,,,,,,,,,,,,,,0,1,1,1,,,,,,,,,,,,,24.95313390000956,,,,,,,,,,,,,,,,,,,,24.944017100002384,24.95313390000956,24.95313390000956,24.95313390000956,24.95313390000956,25.436097400001017,25.4360580666728,25.968992599999183,,26.935151199999382,None,1,None,1,,,,,,,,,,,,,,,,,,,,,,,,,,,,,,,,,,,,,,,,,,,,1 - DUAL,001,2026-05-05_11h17.28.796,untitled,,2025.1.1,60.00193206295381,2026-05-05 11h17.40.349744 +0200,
L,1.wav,1,1,1,2,2,0,d,1,k,1,1.674096600007033,0.12682760000461712,1.8397988000069745,0.11311160000332166,,,,,,,,,,,,,,,0,2,2,2,,,,,,,,,,,,,26.951523800002178,,,,,,,,,,,,,,,,,,,,26.938242800009903,26.951523800002178,26.951523800002178,26.951523800002178,26.951523800002178,27.434374500007834,27.43437496666253,27.95063819999632,,28.933556100004353,d,1,k,1,1.674096600007033,0.12682760000461712,1.8397988000069745,0.11311160000332166,,,,,,,,,,,,,,,,,,,,,,,,,,,,,,,,,,,,,,,,1 - DUAL,001,2026-05-05_11h17.28.796,untitled,,2025.1.1,60.00193206295381,2026-05-05 11h17.40.349744 +0200,
B,8.wav,0,0,0,3,3,0,None,1,None,1,,,,,,,,,,,,,,,,,,,0,3,3,3,,,,,,,,,,,,,28.949840200002654,,,,,,,,,,,,,,,,,,,,28.942382699999143,28.949840200002654,28.949840200002654,28.949840200002654,28.949840200002654,29.43289409999852,29.43285446666802,29.965592599997763,,30.931834500006516,None,1,None,1,,,,,,,,,,,,,,,,,,,,,,,,,,,,,,,,,,,,,,,,,,,,1 - DUAL,001,2026-05-05_11h17.28.796,untitled,,2025.1.1,60.00193206295381,2026-05-05 11h17.40.349744 +0200,
G,3.wav,0,0,0,4,4,0,None,1,None,1,,,,,,,,,,,,,,,,,,,0,4,4,4,,,,,,,,,,,,,30.94817299999704,,,,,,,,,,,,,,,,,,,,30.9416390999977,30.94817299999704,30.94817299999704,30.94817299999704,30.94817299999704,31.431175699995947,31.431121766672973,31.947446899997885,,32.93013100000098,None,1,None,1,,,,,,,,,,,,,,,,,,,,,,,,,,,,,,,,,,,,,,,,,,,,1 - DUAL,001,2026-05-05_11h17.28.796,untitled,,2025.1.1,60.00193206295381,2026-05-05 11h17.40.349744 +0200,
B,2.wav,1,0,0,5,5,0,d,0,k,1,1.5283873000007588,0.14024789999530185,1.5366140999976778,0.10653049999382347,,,,,,,,,,,,,,,0,5,5,5,,,,,,,,,,,,,32.94657620000362,,,,,,,,,,,,,,,,,,,,32.93561220000265,32.94657620000362,32.94657620000362,32.94657620000362,32.94657620000362,33.42946610000217,33.42965036667398,33.96225070000219,,34.928358700009994,d,0,k,1,1.5283873000007588,0.14024789999530185,1.5366140999976778,0.10653049999382347,,,,,,,,,,,,,,,,,,,,,,,,,,,,,,,,,,,,,,,,1 - DUAL,001,2026-05-05_11h17.28.796,untitled,,2025.1.1,60.00193206295381,2026-05-05 11h17.40.349744 +0200,
F,1.wav,0,0,0,6,6,0,None,1,None,1,,,,,,,,,,,,,,,,,,,0,6,6,6,,,,,,,,,,,,,34.944885600009,,,,,,,,,,,,,,,,,,,,34.93441000000166,34.944885600009,34.944885600009,34.944885600009,34.944885600009,35.427907400007825,35.42797526666642,35.94409089999681,,36.927001500007464,None,1,None,1,,,,,,,,,,,,,,,,,,,,,,,,,,,,,,,,,,,,,,,,,,,,1 - DUAL,001,2026-05-05_11h17.28.796,untitled,,2025.1.1,60.00193206295381,2026-05-05 11h17.40.349744 +0200,
N,5.wav,0,0,0,7,7,0,None,1,None,1,,,,,,,,,,,,,,,,,,,0,7,7,7,,,,,,,,,,,,,36.94320819999848,,,,,,,,,,,,,,,,,,,,36.938049400007,36.94320819999848,36.94320819999848,36.94320819999848,36.94320819999848,37.426310099996044,37.42605006667533,37.959194600000046,,38.92495529999724,None,1,None,1,,,,,,,,,,,,,,,,,,,,,,,,,,,,,,,,,,,,,,,,,,,,1 - DUAL,001,2026-05-05_11h17.28.796,untitled,,2025.1.1,60.00193206295381,2026-05-05 11h17.40.349744 +0200,
V,1.wav,0,1,0,8,8,0,d,1,None,1,1.1293493999983184,0.12889649999851827,,,,,,,,,,,,,,,,,0,8,8,8,,,,,,,,,,,,,38.94155689999752,,,,,,,,,,,,,,,,,,,,38.93027179999626,38.94155689999752,38.94155689999752,38.94155689999752,38.94155689999752,39.42459599999711,39.42450686666804,39.940870699996594,,40.92370739999751,d,1,None,1,1.1293493999983184,0.12889649999851827,,,,,,,,,,,,,,,,,,,,,,,,,,,,,,,,,,,,,,,,,,1 - DUAL,001,2026-05-05_11h17.28.796,untitled,,2025.1.1,60.00193206295381,2026-05-05 11h17.40.349744 +0200,
L,6.wav,0,0,0,9,9,0,None,1,None,1,,,,,,,,,,,,,,,,,,,0,9,9,9,,,,,,,,,,,,,40.939873000010266,,,,,,,,,,,,,,,,,,,,40.93345160000899,40.939873000010266,40.939873000010266,40.939873000010266,40.939873000010266,41.42305569999735,41.42286666666429,41.939133200008655,,42.92201330000535,None,1,None,1,,,,,,,,,,,,,,,,,,,,,,,,,,,,,,,,,,,,,,,,,,,,1 - DUAL,001,2026-05-05_11h17.28.796,untitled,,2025.1.1,60.00193206295381,2026-05-05 11h17.40.349744 +0200,
H,7.wav,0,0,0,10,10,0,None,1,None,1,,,,,,,,,,,,,,,,,,,0,10,10,10,,,,,,,,,,,,,42.938340100008645,,,,,,,,,,,,,,,,,,,,42.93236479999905,42.938340100008645,42.938340100008645,42.938340100008645,42.938340100008645,43.42133140000806,43.42124466666816,43.9374841000099,44.936753800007864,44.93692980000924,None,1,None,1,,,,,,,,,,,,,,,,,,,,,,,,,,,,,,,,,,,,,,,,,,,,1 - DUAL,001,2026-05-05_11h17.28.796,untitled,,2025.1.1,60.00193206295381,2026-05-05 11h17.40.349744 +0200,
L,4.wav,1,0,0,11,11,0,None,1,k,1,,,1.1821081999951275,0.080002600006992,,,,,,,,,,,,,,,0,11,11,11,,,,,,,,,,,,,44.95320780000475,,,,,,,,,,,,,,,,,,,,44.943808800002444,44.95320780000475,44.95320780000475,44.95320780000475,44.95320780000475,45.43625100000645,45.4361959666751,45.969175000005635,,46.9352690000087,None,1,k,1,,,1.1821081999951275,0.080002600006992,,,,,,,,,,,,,,,,,,,,,,,,,,,,,,,,,,,,,,,,1 - DUAL,001,2026-05-05_11h17.28.796,untitled,,2025.1.1,60.00193206295381,2026-05-05 11h17.40.349744 +0200,
F,3.wav,0,0,0,12,12,0,None,1,None,1,,,,,,,,,,,,,,,,,,,0,12,12,12,,,,,,,,,,,,,46.951711000001524,,,,,,,,,,,,,,,,,,,,46.94069460000901,46.951711000001524,46.951711000001524,46.951711000001524,46.951711000001524,47.43472099999781,47.434803666667236,47.950973600003636,,48.93403770000441,None,1,None,1,,,,,,,,,,,,,,,,,,,,,,,,,,,,,,,,,,,,,,,,,,,,1 - DUAL,001,2026-05-05_11h17.28.796,untitled,,2025.1.1,60.00193206295381,2026-05-05 11h17.40.349744 +0200,
A,6.wav,0,0,0,13,13,0,None,1,None,1,,,,,,,,,,,,,,,,,,,0,13,13,13,,,,,,,,,,,,,48.950213000003714,,,,,,,,,,,,,,,,,,,,48.943870300005074,48.950213000003714,48.950213000003714,48.950213000003714,48.950213000003714,49.43310910000582,49.432987666663635,49.94919330000994,,50.9322960999998,None,1,None,1,,,,,,,,,,,,,,,,,,,,,,,,,,,,,,,,,,,,,,,,,,,,1 - DUAL,001,2026-05-05_11h17.28.796,untitled,,2025.1.1,60.00193206295381,2026-05-05 11h17.40.349744 +0200,
R,1.wav,0,0,0,14,14,0,None,1,None,1,,,,,,,,,,,,,,,,,,,0,14,14,14,,,,,,,,,,,,,50.948358499997994,,,,,,,,,,,,,,,,,,,,50.93735490000108,50.948358499997994,50.948358499997994,50.948358499997994,50.948358499997994,51.431433300007484,51.43141966667123,51.947638700003154,,52.9305541000067,None,1,None,1,,,,,,,,,,,,,,,,,,,,,,,,,,,,,,,,,,,,,,,,,,,,1 - DUAL,001,2026-05-05_11h17.28.796,untitled,,2025.1.1,60.00193206295381,2026-05-05 11h17.40.349744 +0200,
D,6.wav,0,1,0,15,15,0,None,0,None,1,,,,,,,,,,,,,,,,,,,0,15,15,15,,,,,,,,,,,,,52.94690750000882,,,,,,,,,,,,,,,,,,,,52.940079100008006,52.94690750000882,52.94690750000882,52.94690750000882,52.94690750000882,53.42962570000964,53.42977116666249,53.94597200000135,,54.92870210000547,None,0,None,1,,,,,,,,,,,,,,,,,,,,,,,,,,,,,,,,,,,,,,,,,,,,1 - DUAL,001,2026-05-05_11h17.28.796,untitled,,2025.1.1,60.00193206295381,2026-05-05 11h17.40.349744 +0200,
R,4.wav,1,0,0,16,16,0,None,1,None,0,,,,,,,,,,,,,,,,,,,0,16,16,16,,,,,,,,,,,,,54.94518890000472,,,,,,,,,,,,,,,,,,,,54.935258099998464,54.94518890000472,54.94518890000472,54.94518890000472,54.94518890000472,55.42807229999744,55.42821236666738,55.960964600002626,,56.92695480000111,None,1,None,0,,,,,,,,,,,,,,,,,,,,,,,,,,,,,,,,,,,,,,,,,,,,1 - DUAL,001,2026-05-05_11h17.28.796,untitled,,2025.1.1,60.00193206295381,2026-05-05 11h17.40.349744 +0200,
X,3.wav,0,0,0,17,17,0,None,1,None,1,,,,,,,,,,,,,,,,,,,0,17,17,17,,,,,,,,,,,,,56.94341480000003,,,,,,,,,,,,,,,,,,,,56.9353007000027,56.94341480000003,56.94341480000003,56.94341480000003,56.94341480000003,57.42646899999818,57.42637026666877,57.942784600003506,,58.92543670001032,None,1,None,1,,,,,,,,,,,,,,,,,,,,,,,,,,,,,,,,,,,,,,,,,,,,1 - DUAL,001,2026-05-05_11h17.28.796,untitled,,2025.1.1,60.00193206295381,2026-05-05 11h17.40.349744 +0200,
N,7.wav,0,0,0,18,18,0,None,1,None,1,,,,,,,,,,,,,,,,,,,0,18,18,18,,,,,,,,,,,,,58.941816400008975,,,,,,,,,,,,,,,,,,,,58.93218190000334,58.941816400008975,58.941816400008975,58.941816400008975,58.941816400008975,59.42493480000121,59.424821066674,59.94095770000422,,60.92367190000368,None,1,None,1,,,,,,,,,,,,,,,,,,,,,,,,,,,,,,,,,,,,,,,,,,,,1 - DUAL,001,2026-05-05_11h17.28.796,untitled,,2025.1.1,60.00193206295381,2026-05-05 11h17.40.349744 +0200,
C,5.wav,0,0,0,19,19,0,None,1,None,1,,,,,,,,,,,,,,,,,,,0,19,19,19,,,,,,,,,,,,,60.940159999998286,,,,,,,,,,,,,,,,,,,,60.934653999996954,60.940159999998286,60.940159999998286,60.940159999998286,60.940159999998286,61.42323759999999,61.42322096667,61.93946629999846,,62.92218130000401,None,1,None,1,,,,,,,,,,,,,,,,,,,,,,,,,,,,,,,,,,,,,,,,,,,,1 - DUAL,001,2026-05-05_11h17.28.796,untitled,,2025.1.1,60.00193206295381,2026-05-05 11h17.40.349744 +0200,
A,2.wav,0,0,0,20,20,0,None,1,None,1,,,,,,,,,,,,,,,,,,,0,20,20,20,,,,,,,,,,,,,62.938432199996896,,,,,,,,,,,,,,,,,,,,62.92636389999825,62.938432199996896,62.938432199996896,62.938432199996896,62.938432199996896,63.42156830000749,63.421512766672336,63.95434209999803,64.93702690000646,64.93719409999903,None,1,None,1,,,,,,,,,,,,,,,,,,,,,,,,,,,,,,,,,,,,,,,,,,,,1 - DUAL,001,2026-05-05_11h17.28.796,untitled,,2025.1.1,60.00193206295381,2026-05-05 11h17.40.349744 +0200,
N,7.wav,0,0,0,21,21,0,None,1,None,1,,,,,,,,,,,,,,,,,,,0,21,21,21,,,,,,,,,,,,,64.95363230000657,,,,,,,,,,,,,,,,,,,,64.94432930000767,64.95363230000657,64.95363230000657,64.95363230000657,64.95363230000657,65.43648309999844,65.4366039666677,65.95272870000917,,66.9353936999978,None,1,None,1,,,,,,,,,,,,,,,,,,,,,,,,,,,,,,,,,,,,,,,,,,,,1 - DUAL,001,2026-05-05_11h17.28.796,untitled,,2025.1.1,60.00193206295381,2026-05-05 11h17.40.349744 +0200,
S,2.wav,0,1,0,22,22,0,None,0,None,1,,,,,,,,,,,,,,,,,,,0,22,22,22,,,,,,,,,,,,,66.95193779999681,,,,,,,,,,,,,,,,,,,,66.9430357000092,66.95193779999681,66.95193779999681,66.95193779999681,66.95193779999681,67.43490229999588,67.43489136666564,67.96787089999998,,68.93389690000913,None,0,None,1,,,,,,,,,,,,,,,,,,,,,,,,,,,,,,,,,,,,,,,,,,,,1 - DUAL,001,2026-05-05_11h17.28.796,untitled,,2025.1.1,60.00193206295381,2026-05-05 11h17.40.349744 +0200,
D,8.wav,0,0,0,23,23,0,None,1,None,1,,,,,,,,,,,,,,,,,,,0,23,23,23,,,,,,,,,,,,,68.95024230000854,,,,,,,,,,,,,,,,,,,,68.93982729999698,68.95024230000854,68.95024230000854,68.95024230000854,68.95024230000854,69.43326449999586,69.43311736667626,69.96614760000375,,70.93229720000818,None,1,None,1,,,,,,,,,,,,,,,,,,,,,,,,,,,,,,,,,,,,,,,,,,,,1 - DUAL,001,2026-05-05_11h17.28.796,untitled,,2025.1.1,60.00193206295381,2026-05-05 11h17.40.349744 +0200,
,,,,,,,,,,,,,,,,,,,,,,,,,,,,,,,,,,,,,,,,,,,,,,,,,,,,,,,,,,,,,,,,,,,,,,,,,,,,,,,,,,,,70.93243699999584,70.94865710000158,70.94865710000158,73.79666859999998,space,2.8436577999964356,None,,,,,,,,,,,,,,,,,,,,,,,,,,,,,,,,,1 - DUAL,001,2026-05-05_11h17.28.796,untitled,,2025.1.1,60.00193206295381,2026-05-05 11h17.40.349744 +0200,
D,5.wav,0,0,0,0,0,0,,,,,,,,,bloc_a.xlsx,None,1,None,1,,,,,,,,,,,,,,0,0,0,0,0,0,0,0,0,0,0,0,73.81862750000437,,,,,,,,,,,,,,,,,,,,,,,,,,,,,,,,,,,,,,,,,,,,,73.81715960000292,73.81862750000437,73.81862750000437,74.81218560000707,74.81217646667598,75.32833770000434,76.31100180000067,None,1,None,1,,,,,,,,,,,,,,,,,,,,,,1 - DUAL,001,2026-05-05_11h17.28.796,untitled,,2025.1.1,60.00193206295381,2026-05-05 11h17.40.349744 +0200,
W,2.wav,0,0,0,1,1,0,,,,,,,,,bloc_a.xlsx,None,1,None,1,,,,,,,,,,,,,,0,0,0,0,0,0,0,0,0,1,1,1,76.32743450000999,,,,,,,,,,,,,,,,,,,,,,,,,,,,,,,,,,,,,,,,,,,,,76.3179422000103,76.32743450000999,76.32743450000999,77.31025540000701,77.31013356667633,77.82626339999842,78.8090635999979,None,1,None,1,,,,,,,,,,,,,,,,,,,,,,1 - DUAL,001,2026-05-05_11h17.28.796,untitled,,2025.1.1,60.00193206295381,2026-05-05 11h17.40.349744 +0200,
C,5.wav,0,1,0,2,2,0,,,,,,,,,bloc_a.xlsx,None,1,d,1,1.9350008000037633,0.15320060000522062,,,,,,,,,,,,0,0,0,0,0,0,0,0,0,2,2,2,78.82549020000442,,,,,,,,,,,,,,,,,,,,,,,,,,,,,,,,,,,,,,,,,,,,,78.81711899999937,78.82549020000442,78.82549020000442,79.8079657000053,79.80798716667438,80.34084390000498,81.30689020000864,None,1,d,1,1.9350008000037633,0.15320060000522062,,,,,,,,,,,,,,,,,,,,1 - DUAL,001,2026-05-05_11h17.28.796,untitled,,2025.1.1,60.00193206295381,2026-05-05 11h17.40.349744 +0200,
T,8.wav,0,0,0,3,3,0,,,,,,,,,bloc_a.xlsx,None,1,None,1,,,,,,,,,,,,,,0,0,0,0,0,0,0,0,0,3,3,3,81.32336390001001,,,,,,,,,,,,,,,,,,,,,,,,,,,,,,,,,,,,,,,,,,,,,81.31578610000724,81.32336390001001,81.32336390001001,82.30602319999889,82.30610986666967,82.83883950000745,83.80478760000551,None,1,None,1,,,,,,,,,,,,,,,,,,,,,,1 - DUAL,001,2026-05-05_11h17.28.796,untitled,,2025.1.1,60.00193206295381,2026-05-05 11h17.40.349744 +0200,
N,3.wav,0,0,0,4,4,0,,,,,,,,,bloc_a.xlsx,None,1,None,1,,,,,,,,,,,,,,0,0,0,0,0,0,0,0,0,4,4,4,83.82119689999672,,,,,,,,,,,,,,,,,,,,,,,,,,,,,,,,,,,,,,,,,,,,,83.8112237000023,83.82119689999672,83.82119689999672,84.80394710000837,84.80391956666814,85.32024020000244,86.30299460000242,None,1,None,1,,,,,,,,,,,,,,,,,,,,,,1 - DUAL,001,2026-05-05_11h17.28.796,untitled,,2025.1.1,60.00193206295381,2026-05-05 11h17.40.349744 +0200,
C,5.wav,0,0,0,5,5,0,,,,,,,,,bloc_a.xlsx,None,1,d,0,2.123072600006708,0.13680189999286085,,,,,,,,,,,,0,0,0,0,0,0,0,0,0,5,5,5,86.31942349999736,,,,,,,,,,,,,,,,,,,,,,,,,,,,,,,,,,,,,,,,,,,,,86.31107900000643,86.31942349999736,86.31942349999736,87.30194380000466,87.30181406667204,87.81812660000287,88.80087770000682,None,1,d,0,2.123072600006708,0.13680189999286085,,,,,,,,,,,,,,,,,,,,1 - DUAL,001,2026-05-05_11h17.28.796,untitled,,2025.1.1,60.00193206295381,2026-05-05 11h17.40.349744 +0200,
N,4.wav,1,0,0,6,6,0,,,,,,,,,bloc_a.xlsx,None,0,None,1,,,,,,,,,,,,,,0,0,0,0,0,0,0,0,0,6,6,6,88.81723620000412,,,,,,,,,,,,,,,,,,,,,,,,,,,,,,,,,,,,,,,,,,,,,88.8067929999961,88.81723620000412,88.81723620000412,89.7997663999995,89.79977446666841,90.33267390000401,91.2988289000059,None,0,None,1,,,,,,,,,,,,,,,,,,,,,,1 - DUAL,001,2026-05-05_11h17.28.796,untitled,,2025.1.1,60.00193206295381,2026-05-05 11h17.40.349744 +0200,
D,2.wav,0,0,0,7,7,0,,,,,,,,,bloc_a.xlsx,None,1,None,1,,,,,,,,,,,,,,0,0,0,0,0,0,0,0,0,7,7,7,91.31519999999728,,,,,,,,,,,,,,,,,,,,,,,,,,,,,,,,,,,,,,,,,,,,,91.3031614000065,91.31519999999728,91.31519999999728,92.29786150000291,92.29781786667105,92.83069290001004,93.79678319999948,None,1,None,1,,,,,,,,,,,,,,,,,,,,,,1 - DUAL,001,2026-05-05_11h17.28.796,untitled,,2025.1.1,60.00193206295381,2026-05-05 11h17.40.349744 +0200,
R,4.wav,0,1,0,8,8,0,,,,,,,,,bloc_a.xlsx,None,1,d,1,2.090726499998709,0.16508890000113752,,,,,,,,,,,,0,0,0,0,0,0,0,0,0,8,8,8,93.81319830000575,,,,,,,,,,,,,,,,,,,,,,,,,,,,,,,,,,,,,,,,,,,,,93.80272320000222,93.81319830000575,93.81319830000575,94.81237970000075,94.81248566667297,95.34527620000881,96.3111690000078,None,1,d,1,2.090726499998709,0.16508890000113752,,,,,,,,,,,,,,,,,,,,1 - DUAL,001,2026-05-05_11h17.28.796,untitled,,2025.1.1,60.00193206295381,2026-05-05 11h17.40.349744 +0200,
A,7.wav,0,0,0,9,9,0,,,,,,,,,bloc_a.xlsx,None,1,None,1,,,,,,,,,,,,,,0,0,0,0,0,0,0,0,0,9,9,9,96.327778699997,,,,,,,,,,,,,,,,,,,,,,,,,,,,,,,,,,,,,,,,,,,,,96.31808209999872,96.327778699997,96.327778699997,97.3102227000054,97.31017686667134,97.84320470000966,98.80923359999724,None,1,None,1,,,,,,,,,,,,,,,,,,,,,,1 - DUAL,001,2026-05-05_11h17.28.796,untitled,,2025.1.1,60.00193206295381,2026-05-05 11h17.40.349744 +0200,
V,3.wav,0,0,0,10,10,0,,,,,,,,,bloc_a.xlsx,None,1,None,1,,,,,,,,,,,,,,0,0,0,0,0,0,0,0,0,10,10,10,98.82564310000453,,,,,,,,,,,,,,,,,,,,,,,,,,,,,,,,,,,,,,,,,,,,,98.81489920000604,98.82564310000453,98.82564310000453,99.80813119999948,99.80827456666545,100.34103180000966,101.30728880000242,None,1,None,1,,,,,,,,,,,,,,,,,,,,,,1 - DUAL,001,2026-05-05_11h17.28.796,untitled,,2025.1.1,60.00193206295381,2026-05-05 11h17.40.349744 +0200,
A,6.wav,1,0,0,11,11,0,,,,,,,,,bloc_a.xlsx,k,1,None,1,,,1.3836716000078013,0.12390079999750014,,,,,,,,,,0,0,0,0,0,0,0,0,0,11,11,11,101.32358840000234,,,,,,,,,,,,,,,,,,,,,,,,,,,,,,,,,,,,,,,,,,,,,101.31447450000269,101.32358840000234,101.32358840000234,102.30618490000779,102.30610746666595,102.82231010000396,103.80523549999634,k,1,None,1,,,1.3836716000078013,0.12390079999750014,,,,,,,,,,,,,,,,,,1 - DUAL,001,2026-05-05_11h17.28.796,untitled,,2025.1.1,60.00193206295381,2026-05-05 11h17.40.349744 +0200,
P,3.wav,0,1,0,12,12,0,,,,,,,,,bloc_a.xlsx,None,1,None,0,,,,,,,,,,,,,,0,0,0,0,0,0,0,0,0,12,12,12,103.82157349999761,,,,,,,,,,,,,,,,,,,,,,,,,,,,,,,,,,,,,,,,,,,,,103.81345630000578,103.82157349999761,103.82157349999761,104.80417129999842,104.80415256666699,105.32021630000963,106.30299330000707,None,1,None,0,,,,,,,,,,,,,,,,,,,,,,1 - DUAL,001,2026-05-05_11h17.28.796,untitled,,2025.1.1,60.00193206295381,2026-05-05 11h17.40.349744 +0200,
D,1.wav,0,0,0,13,13,0,,,,,,,,,bloc_a.xlsx,None,1,None,1,,,,,,,,,,,,,,0,0,0,0,0,0,0,0,0,13,13,13,106.31951830000617,,,,,,,,,,,,,,,,,,,,,,,,,,,,,,,,,,,,,,,,,,,,,106.30625090000103,106.31951830000617,106.31951830000617,107.30211790000612,107.30207446667579,107.81832700000086,108.80098810000345,None,1,None,1,,,,,,,,,,,,,,,,,,,,,,1 - DUAL,001,2026-05-05_11h17.28.796,untitled,,2025.1.1,60.00193206295381,2026-05-05 11h17.40.349744 +0200,
P,8.wav,1,0,0,14,14,0,,,,,,,,,bloc_a.xlsx,k,1,None,1,,,1.7426771000027657,0.1104293999960646,,,,,,,,,,0,0,0,0,0,0,0,0,0,14,14,14,108.81729990000895,,,,,,,,,,,,,,,,,,,,,,,,,,,,,,,,,,,,,,,,,,,,,108.80706780000764,108.81729990000895,108.81729990000895,109.80022620000818,109.80003656667056,110.3328218999959,111.29894790000981,k,1,None,1,,,1.7426771000027657,0.1104293999960646,,,,,,,,,,,,,,,,,,1 - DUAL,001,2026-05-05_11h17.28.796,untitled,,2025.1.1,60.00193206295381,2026-05-05 11h17.40.349744 +0200,
V,1.wav,0,1,0,15,15,0,,,,,,,,,bloc_a.xlsx,None,1,None,0,,,,,,,,,,,,,,0,0,0,0,0,0,0,0,0,15,15,15,111.31538110000838,,,,,,,,,,,,,,,,,,,,,,,,,,,,,,,,,,,,,,,,,,,,,111.30230199999642,111.31538110000838,111.31538110000838,112.29801680000674,112.2978715666725,112.81416429999808,113.79681870000786,None,1,None,0,,,,,,,,,,,,,,,,,,,,,,1 - DUAL,001,2026-05-05_11h17.28.796,untitled,,2025.1.1,60.00193206295381,2026-05-05 11h17.40.349744 +0200,
Y,3.wav,0,0,0,16,16,0,,,,,,,,,bloc_a.xlsx,None,1,None,1,,,,,,,,,,,,,,0,0,0,0,0,0,0,0,0,16,16,16,113.81321089999983,,,,,,,,,,,,,,,,,,,,,,,,,,,,,,,,,,,,,,,,,,,,,113.8043580000085,113.81321089999983,113.81321089999983,114.79587360000005,114.79598306666982,115.3288493,116.31164080000599,None,1,None,1,,,,,116.31133720000798,,,,,,,,,,,,,,,,,1 - DUAL,001,2026-05-05_11h17.28.796,untitled,,2025.1.1,60.00193206295381,2026-05-05 11h17.40.349744 +0200,
V,7.wav,1,0,0,17,17,0,,,,,,,,,bloc_a.xlsx,None,0,d,0,2.286805199997616,0.14475759999186266,,,,,,,,,,,,0,0,0,0,0,0,0,0,0,17,17,17,116.32794319999812,,,,,,,,,,,,,,,,,,,,,,,,,,,,,,,,,,,,,,,,,,,,,116.31894389999798,116.32794319999812,116.32794319999812,117.31048130001,117.31046166667171,117.82671290000144,118.80960600000981,None,0,d,0,2.286805199997616,0.14475759999186266,,,,,,,,,,,,,,,,,,,,1 - DUAL,001,2026-05-05_11h17.28.796,untitled,,2025.1.1,60.00193206295381,2026-05-05 11h17.40.349744 +0200,
N,5.wav,0,0,0,18,18,0,,,,,,,,,bloc_a.xlsx,None,1,None,1,,,,,,,,,,,,,,0,0,0,0,0,0,0,0,0,18,18,18,118.82574749999912,,,,,,,,,,,,,,,,,,,,,,,,,,,,,,,,,,,,,,,,,,,,,118.81715299999632,118.82574749999912,118.82574749999912,119.8084644000046,119.80847396667038,120.34133209999709,121.30740820000938,None,1,None,1,,,,,,,,,,,,,,,,,,,,,,1 - DUAL,001,2026-05-05_11h17.28.796,untitled,,2025.1.1,60.00193206295381,2026-05-05 11h17.40.349744 +0200,
A,4.wav,0,0,0,19,19,0,,,,,,,,,bloc_a.xlsx,None,1,None,1,,,,,,,,,,,,,,0,0,0,0,0,0,0,0,0,19,19,19,121.3238185000082,,,,,,,,,,,,,,,,,,,,,,,,,,,,,,,,,,,,,,,,,,,,,121.31403380000847,121.3238185000082,121.3238185000082,122.3063453000068,122.30639006666412,122.83926490000158,123.80524400000286,None,1,None,1,,,,,,,,,,,,,,,,,,,,,,1 - DUAL,001,2026-05-05_11h17.28.796,untitled,,2025.1.1,60.00193206295381,2026-05-05 11h17.40.349744 +0200,
N,5.wav,1,1,1,20,20,0,,,,,,,,,bloc_a.xlsx,k,1,None,0,,,1.8610513999883551,0.11059370001021307,,,,,,,,,,0,0,0,0,0,0,0,0,0,20,20,20,123.8217805000022,,,,,,,,,,,,,,,,,,,,,,,,,,,,,,,,,,,,,,,,,,,,,123.81332260000636,123.8217805000022,123.8217805000022,124.8044174000097,124.80426296666361,125.32046420000552,126.30344180000247,k,1,None,0,,,1.8610513999883551,0.11059370001021307,,,,,,,,,,,,,,,,,,1 - DUAL,001,2026-05-05_11h17.28.796,untitled,,2025.1.1,60.00193206295381,2026-05-05 11h17.40.349744 +0200,
M,1.wav,0,0,0,21,21,0,,,,,,,,,bloc_a.xlsx,None,1,None,1,,,,,,,,,,,,,,0,0,0,0,0,0,0,0,0,21,21,21,126.31964680000965,,,,,,,,,,,,,,,,,,,,,,,,,,,,,,,,,,,,,,,,,,,,,126.30741940000735,126.31964680000965,126.31964680000965,127.30229410000902,127.3022992666704,127.81853410000622,128.8011894000083,None,1,None,1,,,,,,,,,,,,,,,,,,,,,,1 - DUAL,001,2026-05-05_11h17.28.796,untitled,,2025.1.1,60.00193206295381,2026-05-05 11h17.40.349744 +0200,
J,8.wav,0,0,0,22,22,0,,,,,,,,,bloc_a.xlsx,None,1,None,1,,,,,,,,,,,,,,0,0,0,0,0,0,0,0,0,22,22,22,128.81766440000501,,,,,,,,,,,,,,,,,,,,,,,,,,,,,,,,,,,,,,,,,,,,,128.80947100000049,128.81766440000501,128.81766440000501,129.8002947000059,129.80028716667246,130.33312470000237,131.29904389999865,None,1,None,1,,,,,,,,,,,,,,,,,,,,,,1 - DUAL,001,2026-05-05_11h17.28.796,untitled,,2025.1.1,60.00193206295381,2026-05-05 11h17.40.349744 +0200,
T,3.wav,0,0,0,23,23,0,,,,,,,,,bloc_a.xlsx,None,1,None,1,,,,,,,,,,,,,,0,0,0,0,0,0,0,0,0,23,23,23,131.31569560000207,,,,,,,,,,,,,,,,,,,,,,,,,,,,,,,,,,,,,,,,,,,,,131.30522150000616,131.31569560000207,131.31569560000207,132.29832319999696,132.29819366666587,132.81446540000616,133.79693260000204,None,1,None,1,,,,,,,,,,,,,,,,,,,,,,1 - DUAL,001,2026-05-05_11h17.28.796,untitled,,2025.1.1,60.00193206295381,2026-05-05 11h17.40.349744 +0200,
J,5.wav,1,0,0,24,24,0,,,,,,,,,bloc_a.xlsx,None,0,None,1,,,,,,,,,,,,,,0,0,0,0,0,0,0,0,0,24,24,24,133.81359150000208,,,,,,,,,,,,,,,,,,,,,,,,,,,,,,,,,,,,,,,,,,,,,133.8056488000002,133.81359150000208,133.81359150000208,134.79604950000066,134.79624996666487,135.32898810000916,136.3117343000049,None,0,None,1,,,,,136.31160620000446,,,,,,,,,,,,,,,,,1 - DUAL,001,2026-05-05_11h17.28.796,untitled,,2025.1.1,60.00193206295381,2026-05-05 11h17.40.349744 +0200,
B,3.wav,0,1,0,25,25,0,,,,,,,,,bloc_a.xlsx,None,1,None,0,,,,,,,,,,,,,,0,0,0,0,0,0,0,0,0,25,25,25,136.3281110000098,,,,,,,,,,,,,,,,,,,,,,,,,,,,,,,,,,,,,,,,,,,,,136.3169332999969,136.3281110000098,136.3281110000098,137.31065549999767,137.31061566666565,137.82702170000994,138.8097134999989,None,1,None,0,,,,,,,,,,,,,,,,,,,,,,1 - DUAL,001,2026-05-05_11h17.28.796,untitled,,2025.1.1,60.00193206295381,2026-05-05 11h17.40.349744 +0200,
V,8.wav,0,0,0,26,26,0,,,,,,,,,bloc_a.xlsx,None,1,None,1,,,,,,,,,,,,,,0,0,0,0,0,0,0,0,0,26,26,26,138.82612549999612,,,,,,,,,,,,,,,,,,,,,,,,,,,,,,,,,,,,,,,,,,,,,138.81589779999922,138.82612549999612,138.82612549999612,139.80863769999996,139.8086934666683,140.34159720000753,141.30736170000455,None,1,None,1,,,,,,,,,,,,,,,,,,,,,,1 - DUAL,001,2026-05-05_11h17.28.796,untitled,,2025.1.1,60.00193206295381,2026-05-05 11h17.40.349744 +0200,
B,1.wav,1,0,0,27,27,0,,,,,,,,,bloc_a.xlsx,None,0,None,1,,,,,,,,,,,,,,0,0,0,0,0,0,0,0,0,27,27,27,141.32408350000333,,,,,,,,,,,,,,,,,,,,,,,,,,,,,,,,,,,,,,,,,,,,,141.31073930001003,141.32408350000333,141.32408350000333,142.30672490000143,142.3066209666761,142.8228087000025,143.80552660000103,None,0,None,1,,,,,,,,,,,,,,,,,,,,,,1 - DUAL,001,2026-05-05_11h17.28.796,untitled,,2025.1.1,60.00193206295381,2026-05-05 11h17.40.349744 +0200,
M,4.wav,0,0,0,28,28,0,,,,,,,,,bloc_a.xlsx,None,1,None,1,,,,,,,,,,,,,,0,0,0,0,0,0,0,0,0,28,28,28,143.822001499997,,,,,,,,,,,,,,,,,,,,,,,,,,,,,,,,,,,,,,,,,,,,,143.81194470000628,143.822001499997,143.822001499997,144.8046539000061,144.80465936666977,145.33744400000433,146.30351399999927,None,1,None,1,,,,,,,,,,,,,,,,,,,,,,1 - DUAL,001,2026-05-05_11h17.28.796,untitled,,2025.1.1,60.00193206295381,2026-05-05 11h17.40.349744 +0200,
R,6.wav,0,0,0,29,29,0,,,,,,,,,bloc_a.xlsx,None,1,None,1,,,,,,,,,,,,,,0,0,0,0,0,0,0,0,0,29,29,29,146.32000829999743,,,,,,,,,,,,,,,,,,,,,,,,,,,,,,,,,,,,,,,,,,,,,146.3106495999964,146.32000829999743,146.32000829999743,147.30248130000837,147.30255706666892,147.818703500001,148.80155180000293,None,1,None,1,,,,,,,,,,,,,,,,,,,,,,1 - DUAL,001,2026-05-05_11h17.28.796,untitled,,2025.1.1,60.00193206295381,2026-05-05 11h17.40.349744 +0200,
N,4.wav,0,1,0,30,30,0,,,,,,,,,bloc_a.xlsx,None,1,None,0,,,,,,,,,,,,,,0,0,0,0,0,0,0,0,0,30,30,30,148.81792020000285,,,,,,,,,,,,,,,,,,,,,,,,,,,,,,,,,,,,,,,,,,,,,148.80744360000244,148.81792020000285,148.81792020000285,149.80039570000372,149.80040436666266,150.33328550000442,151.2993437999976,None,1,None,0,,,,,,,,,,,,,,,,,,,,,,1 - DUAL,001,2026-05-05_11h17.28.796,untitled,,2025.1.1,60.00193206295381,2026-05-05 11h17.40.349744 +0200,
A,8.wav,0,0,0,31,31,0,,,,,,,,,bloc_a.xlsx,None,1,None,1,,,,,,,,,,,,,,0,0,0,0,0,0,0,0,0,31,31,31,151.31591730000218,,,,,,,,,,,,,,,,,,,,,,,,,,,,,,,,,,,,,,,,,,,,,151.30526510000345,151.31591730000218,151.31591730000218,152.29843140000594,152.2985035666682,152.83125370000198,153.79717849999724,None,1,None,1,,,,,,,,,,,,,,,,,,,,,,1 - DUAL,001,2026-05-05_11h17.28.796,untitled,,2025.1.1,60.00193206295381,2026-05-05 11h17.40.349744 +0200,
Y,7.wav,0,0,0,32,32,0,,,,,,,,,bloc_a.xlsx,None,1,None,1,,,,,,,,,,,,,,0,0,0,0,0,0,0,0,0,32,32,32,153.81381059999694,,,,,,,,,,,,,,,,,,,,,,,,,,,,,,,,,,,,,,,,,,,,,153.80416840000544,153.81381059999694,153.81381059999694,154.79628619999858,154.79620936667587,155.32931200000166,156.3119757000095,None,1,None,1,,,,,156.31172140000854,,,,,,,,,,,,,,,,,1 - DUAL,001,2026-05-05_11h17.28.796,untitled,,2025.1.1,60.00193206295381,2026-05-05 11h17.40.349744 +0200,
A,6.wav,1,0,0,33,33,0,,,,,,,,,bloc_a.xlsx,None,0,None,1,,,,,,,,,,,,,,0,0,0,0,0,0,0,0,0,33,33,33,156.32854729999963,,,,,,,,,,,,,,,,,,,,,,,,,,,,,,,,,,,,,,,,,,,,,156.31874850000895,156.32854729999963,156.32854729999963,157.31076150000445,157.3108302666699,157.82715070000268,158.80973350000568,None,0,None,1,,,,,158.80958329999703,,,,,,,,,,,,,,,,,1 - DUAL,001,2026-05-05_11h17.28.796,untitled,,2025.1.1,60.00193206295381,2026-05-05 11h17.40.349744 +0200,
X,8.wav,0,0,0,34,34,0,,,,,,,,,bloc_a.xlsx,None,1,None,1,,,,,,,,,,,,,,0,0,0,0,0,0,0,0,0,34,34,34,158.8263561000058,,,,,,,,,,,,,,,,,,,,,,,,,,,,,,,,,,,,,,,,,,,,,158.81639469999936,158.8263561000058,158.8263561000058,159.8089267000032,159.80889926666376,160.34173870000814,161.30789199999708,None,1,None,1,,,,,,,,,,,,,,,,,,,,,,1 - DUAL,001,2026-05-05_11h17.28.796,untitled,,2025.1.1,60.00193206295381,2026-05-05 11h17.40.349744 +0200,
G,7.wav,0,0,0,35,35,0,,,,,,,,,bloc_a.xlsx,None,1,d,0,1.7273147000087192,0.1401420999900438,,,,,,,,,,,,0,0,0,0,0,0,0,0,0,35,35,35,161.32430849999946,,,,,,,,,,,,,,,,,,,,,,,,,,,,,,,,,,,,,,,,,,,,,161.31527920000372,161.32430849999946,161.32430849999946,162.30671910000092,162.30696306667622,162.8396858000051,163.80586140000378,None,1,d,0,1.7273147000087192,0.1401420999900438,,,,,,,,,,,,,,,,,,,,1 - DUAL,001,2026-05-05_11h17.28.796,untitled,,2025.1.1,60.00193206295381,2026-05-05 11h17.40.349744 +0200,
Q,8.wav,0,1,0,36,36,0,,,,,,,,,bloc_a.xlsx,None,1,None,0,,,,,,,,,,,,,,0,0,0,0,0,0,0,0,0,36,36,36,163.82218440000725,,,,,,,,,,,,,,,,,,,,,,,,,,,,,,,,,,,,,,,,,,,,,163.81463030001032,163.82218440000725,163.82218440000725,164.80473129999882,164.80489136667555,165.33767120000266,166.303711200002,None,1,None,0,,,,,,,,,,,,,,,,,,,,,,1 - DUAL,001,2026-05-05_11h17.28.796,untitled,,2025.1.1,60.00193206295381,2026-05-05 11h17.40.349744 +0200,
C,4.wav,0,0,0,37,37,0,,,,,,,,,bloc_a.xlsx,None,1,None,1,,,,,,,,,,,,,,0,0,0,0,0,0,0,0,0,37,37,37,166.32030370000575,,,,,,,,,,,,,,,,,,,,,,,,,,,,,,,,,,,,,,,,,,,,,166.3098236000078,166.32030370000575,166.32030370000575,167.30278169999656,167.30284346666693,167.8356075000047,168.80155590000504,None,1,None,1,,,,,,,,,,,,,,,,,,,,,,1 - DUAL,001,2026-05-05_11h17.28.796,untitled,,2025.1.1,60.00193206295381,2026-05-05 11h17.40.349744 +0200,
Z,3.wav,0,0,0,38,38,0,,,,,,,,,bloc_a.xlsx,None,1,None,1,,,,,,,,,,,,,,0,0,0,0,0,0,0,0,0,38,38,38,168.81815410000854,,,,,,,,,,,,,,,,,,,,,,,,,,,,,,,,,,,,,,,,,,,,,168.8092631000036,168.81815410000854,168.81815410000854,169.80074780000723,169.80068626667006,170.33359960000962,171.29977789999975,None,1,None,1,,,,,,,,,,,,,,,,,,,,,,1 - DUAL,001,2026-05-05_11h17.28.796,untitled,,2025.1.1,60.00193206295381,2026-05-05 11h17.40.349744 +0200,
F,6.wav,0,0,0,39,39,0,,,,,,,,,bloc_a.xlsx,None,1,None,1,,,,,,,,,,,,,,0,0,0,0,0,0,0,0,0,39,39,39,171.3160659999994,,,,,,,,,,,,,,,,,,,,,,,,,,,,,,,,,,,,,,,,,,,,,171.30682189999789,171.3160659999994,171.3160659999994,172.29860680000274,172.29879736666433,172.81488190000528,173.7977125000034,None,1,None,1,,,,,,,,,,,,,,,,,,,,,,1 - DUAL,001,2026-05-05_11h17.28.796,untitled,,2025.1.1,60.00193206295381,2026-05-05 11h17.40.349744 +0200,
Z,1.wav,1,0,0,40,40,0,,,,,,,,,bloc_a.xlsx,None,0,None,1,,,,,,,,,,,,,,0,0,0,0,0,0,0,0,0,40,40,40,173.81397350000043,,,,,,,,,,,,,,,,,,,,,,,,,,,,,,,,,,,,,,,,,,,,,173.80056050000712,173.81397350000043,173.81397350000043,174.7965608000086,174.796520366672,175.29600650000793,176.312064800004,None,0,None,1,,,,,176.31191340000078,,,,,,,,,,,,,,,,,1 - DUAL,001,2026-05-05_11h17.28.796,untitled,,2025.1.1,60.00193206295381,2026-05-05 11h17.40.349744 +0200,
N,3.wav,0,0,0,41,41,0,,,,,,,,,bloc_a.xlsx,None,1,None,1,,,,,,,,,,,,,,0,0,0,0,0,0,0,0,0,41,41,41,176.3286863000103,,,,,,,,,,,,,,,,,,,,,,,,,,,,,,,,,,,,,,,,,,,,,176.31834120000713,176.3286863000103,176.3286863000103,177.31117800000357,177.31104446667112,177.8273773999972,178.8101342000009,None,1,None,1,,,,,,,,,,,,,,,,,,,,,,1 - DUAL,001,2026-05-05_11h17.28.796,untitled,,2025.1.1,60.00193206295381,2026-05-05 11h17.40.349744 +0200,
Y,1.wav,0,1,0,42,42,0,,,,,,,,,bloc_a.xlsx,None,1,None,0,,,,,,,,,,,,,,0,0,0,0,0,0,0,0,0,42,42,42,178.82662200000777,,,,,,,,,,,,,,,,,,,,,,,,,,,,,,,,,,,,,,,,,,,,,178.81363010000496,178.82662200000777,178.82662200000777,179.8090446999995,179.80919366666447,180.32541700000002,181.30804210000497,None,1,None,0,,,,,,,,,,,,,,,,,,,,,,1 - DUAL,001,2026-05-05_11h17.28.796,untitled,,2025.1.1,60.00193206295381,2026-05-05 11h17.40.349744 +0200,
H,7.wav,0,0,0,43,43,0,,,,,,,,,bloc_a.xlsx,None,1,None,1,,,,,,,,,,,,,,0,0,0,0,0,0,0,0,0,43,43,43,181.32448910000676,,,,,,,,,,,,,,,,,,,,,,,,,,,,,,,,,,,,,,,,,,,,,181.31539600000542,181.32448910000676,181.32448910000676,182.30707740000798,182.30709316666278,182.83987589999742,183.8057756000053,None,1,None,1,,,,,,,,,,,,,,,,,,,,,,1 - DUAL,001,2026-05-05_11h17.28.796,untitled,,2025.1.1,60.00193206295381,2026-05-05 11h17.40.349744 +0200,
C,4.wav,0,0,0,44,44,0,,,,,,,,,bloc_a.xlsx,None,1,None,1,,,,,,,,,,,,,,0,0,0,0,0,0,0,0,0,44,44,44,183.82248100001016,,,,,,,,,,,,,,,,,,,,,,,,,,,,,,,,,,,,,,,,,,,,,183.8130697000015,183.82248100001016,183.82248100001016,184.8050596999965,184.80497386666346,185.337784000003,186.3038527000026,None,1,None,1,,,,,,,,,,,,,,,,,,,,,,1 - DUAL,001,2026-05-05_11h17.28.796,untitled,,2025.1.1,60.00193206295381,2026-05-05 11h17.40.349744 +0200,
Y,7.wav,0,1,0,45,45,0,,,,,,,,,bloc_a.xlsx,None,1,None,0,,,,,,,,,,,,,,0,0,0,0,0,0,0,0,0,45,45,45,186.32030340000347,,,,,,,,,,,,,,,,,,,,,,,,,,,,,,,,,,,,,,,,,,,,,186.31054849999782,186.32030340000347,186.32030340000347,187.30288160000055,187.30291696667362,187.81926479999674,188.80198519999976,None,1,None,0,,,,,,,,,,,,,,,,,,,,,,1 - DUAL,001,2026-05-05_11h17.28.796,untitled,,2025.1.1,60.00193206295381,2026-05-05 11h17.40.349744 +0200,
B,6.wav,0,0,0,46,46,0,,,,,,,,,bloc_a.xlsx,None,1,None,1,,,,,,,,,,,,,,0,0,0,0,0,0,0,0,0,46,46,46,188.81837029999588,,,,,,,,,,,,,,,,,,,,,,,,,,,,,,,,,,,,,,,,,,,,,188.80914350000967,188.81837029999588,188.81837029999588,189.80078240000876,189.80087316666712,190.3171682999964,191.2998263000045,None,1,None,1,,,,,,,,,,,,,,,,,,,,,,1 - DUAL,001,2026-05-05_11h17.28.796,untitled,,2025.1.1,60.00193206295381,2026-05-05 11h17.40.349744 +0200,
Y,5.wav,1,0,0,47,47,0,,,,,,,,,bloc_a.xlsx,k,1,None,1,,,2.12554629999795,0.12742220000654925,,,,,,,,,,0,0,0,0,0,0,0,0,0,47,47,47,191.31636090000393,,,,,,,,,,,,,,,,,,,,,,,,,,,,,,,,,,,,,,,,,,,,,191.30849999999919,191.31636090000393,191.31636090000393,192.29889489999914,192.29879306667524,192.83178710000357,193.7977169000078,k,1,None,1,,,2.12554629999795,0.12742220000654925,,,,,,,,,,,,,,,,,,1 - DUAL,001,2026-05-05_11h17.28.796,untitled,,2025.1.1,60.00193206295381,2026-05-05 11h17.40.349744 +0200,
T,7.wav,0,0,0,48,48,0,,,,,,,,,bloc_a.xlsx,None,1,None,1,,,,,,,,,,,,,,0,0,0,0,0,0,0,0,0,48,48,48,193.81427339999937,,,,,,,,,,,,,,,,,,,,,,,,,,,,,,,,,,,,,,,,,,,,,193.80539310000313,193.81427339999937,193.81427339999937,194.79680830000143,194.7969483666714,195.3296413000062,196.31234340000083,None,1,None,1,,,,,196.31221370000276,,,,,,,,,,,,,,,,,1 - DUAL,001,2026-05-05_11h17.28.796,untitled,,2025.1.1,60.00193206295381,2026-05-05 11h17.40.349744 +0200,
N,2.wav,0,0,0,49,49,0,,,,,,,,,bloc_a.xlsx,None,1,None,1,,,,,,,,,,,,,,0,0,0,0,0,0,0,0,0,49,49,49,196.3289974000072,,,,,,,,,,,,,,,,,,,,,,,,,,,,,,,,,,,,,,,,,,,,,196.31653530000767,196.3289974000072,196.3289974000072,197.3113874999981,197.31150986666424,197.8443580000021,198.81053699999757,None,1,None,1,,,,,,,,,,,,,,,,,,,,,,1 - DUAL,001,2026-05-05_11h17.28.796,untitled,,2025.1.1,60.00193206295381,2026-05-05 11h17.40.349744 +0200,
,,,,,0,0,0,,,,,,,,,bloc_a.xlsx,,,,,,,,,,,,,,,,,,0,0,0,0,0,0,0,0,,,,,,,,,,,,,,,,,,,,,,,,,,,,,,,,,,,,,,,,,,,,,,,,,,,,,,,,,,,,,,,,,,,,,,,,,,,,,,,,,,1 - DUAL,001,2026-05-05_11h17.28.796,untitled,,2025.1.1,60.00193206295381,2026-05-05 11h17.40.349744 +0200,
Z,6.wav,0,0,0,0,0,0,,,,,,,,,bloc_c.xlsx,None,1,d,0,1.4235301000007894,0.14718729999731295,,,,,,,,,,,,0,0,0,0,0,1,1,1,0,0,0,0,198.8350880000071,,,,,,,,,,,,,,,,,,,,,,,,,,,,,,,,,,,,,,,,,,,,,198.83361280000827,198.8350880000071,198.8350880000071,199.80923460000486,199.80935326667193,200.3256989000074,201.30830380000407,None,1,d,0,1.4235301000007894,0.14718729999731295,,,,,,,,,,,,,,,,,,,,1 - DUAL,001,2026-05-05_11h17.28.796,untitled,,2025.1.1,60.00193206295381,2026-05-05 11h17.40.349744 +0200,
M,7.wav,0,0,0,1,1,0,,,,,,,,,bloc_c.xlsx,None,1,None,1,,,,,,,,,,,,,,0,0,0,0,0,1,1,1,0,1,1,1,201.32478960001026,,,,,,,,,,,,,,,,,,,,,,,,,,,,,,,,,,,,,,,,,,,,,201.31547309999587,201.32478960001026,201.32478960001026,202.30742110000574,202.3073117666684,202.84037869999884,203.8061141000071,None,1,None,1,,,,,,,,,,,,,,,,,,,,,,1 - DUAL,001,2026-05-05_11h17.28.796,untitled,,2025.1.1,60.00193206295381,2026-05-05 11h17.40.349744 +0200,
Z,1.wav,1,0,0,2,2,0,,,,,,,,,bloc_c.xlsx,None,0,None,1,,,,,,,,,,,,,,0,0,0,0,0,1,1,1,0,2,2,2,203.82262180000544,,,,,,,,,,,,,,,,,,,,,,,,,,,,,,,,,,,,,,,,,,,,,203.80914759999723,203.82262180000544,203.82262180000544,204.80513300000166,204.80533376666816,205.3215685000032,206.30435099999886,None,0,None,1,,,,,,,,,,,,,,,,,,,,,,1 - DUAL,001,2026-05-05_11h17.28.796,untitled,,2025.1.1,60.00193206295381,2026-05-05 11h17.40.349744 +0200,
E,8.wav,0,0,0,3,3,0,,,,,,,,,bloc_c.xlsx,None,1,None,1,,,,,,,,,,,,,,0,0,0,0,0,1,1,1,0,3,3,3,206.32056629999715,,,,,,,,,,,,,,,,,,,,,,,,,,,,,,,,,,,,,,,,,,,,,206.31321610001032,206.32056629999715,206.32056629999715,207.3032469000027,207.30317206666612,207.83611380000366,208.8020830000023,None,1,None,1,,,,,,,,,,,,,,,,,,,,,,1 - DUAL,001,2026-05-05_11h17.28.796,untitled,,2025.1.1,60.00193206295381,2026-05-05 11h17.40.349744 +0200,
R,3.wav,0,0,0,4,4,0,,,,,,,,,bloc_c.xlsx,None,1,None,1,,,,,,,,,,,,,,0,0,0,0,0,1,1,1,0,4,4,4,208.81856820000394,,,,,,,,,,,,,,,,,,,,,,,,,,,,,,,,,,,,,,,,,,,,,208.80772830000205,208.81856820000394,208.81856820000394,209.80102440000337,209.80109166667197,210.3173378000065,211.29992720000155,None,1,None,1,,,,,,,,,,,,,,,,,,,,,,1 - DUAL,001,2026-05-05_11h17.28.796,untitled,,2025.1.1,60.00193206295381,2026-05-05 11h17.40.349744 +0200,
J,8.wav,0,1,0,5,5,0,,,,,,,,,bloc_c.xlsx,None,1,None,0,,,,,,,,,,,,,,0,0,0,0,0,1,1,1,0,5,5,5,211.31644830000005,,,,,,,,,,,,,,,,,,,,,,,,,,,,,,,,,,,,,,,,,,,,,211.3060225000081,211.31644830000005,211.31644830000005,212.29911069999798,212.29908746667596,212.83191269999952,213.79803649999667,None,1,None,0,,,,,,,,,,,,,,,,,,,,,,1 - DUAL,001,2026-05-05_11h17.28.796,untitled,,2025.1.1,60.00193206295381,2026-05-05 11h17.40.349744 +0200,
R,5.wav,1,0,0,6,6,0,,,,,,,,,bloc_c.xlsx,k,1,None,1,,,1.7238797000027262,0.11575279998942278,,,,,,,,,,0,0,0,0,0,1,1,1,0,6,6,6,213.81447219999973,,,,,,,,,,,,,,,,,,,,,,,,,,,,,,,,,,,,,,,,,,,,,213.80579549999675,213.81447219999973,213.81447219999973,214.79708820000815,214.79705166667216,215.313335800005,216.3127269999968,k,1,None,1,,,1.7238797000027262,0.11575279998942278,216.3123470999999,,,,,,,,,,,,,,,,,1 - DUAL,001,2026-05-05_11h17.28.796,untitled,,2025.1.1,60.00193206295381,2026-05-05 11h17.40.349744 +0200,
Q,2.wav,0,0,0,7,7,0,,,,,,,,,bloc_c.xlsx,None,1,None,1,,,,,,,,,,,,,,0,0,0,0,0,1,1,1,0,7,7,7,216.32905620000383,,,,,,,,,,,,,,,,,,,,,,,,,,,,,,,,,,,,,,,,,,,,,216.31691870000213,216.32905620000383,216.32905620000383,217.31150360000902,217.31154086666746,217.82785539999895,218.81048510000983,None,1,None,1,,,,,,,,,,,,,,,,,,,,,,1 - DUAL,001,2026-05-05_11h17.28.796,untitled,,2025.1.1,60.00193206295381,2026-05-05 11h17.40.349744 +0200,
H,6.wav,0,0,0,8,8,0,,,,,,,,,bloc_c.xlsx,None,1,None,1,,,,,,,,,,,,,,0,0,0,0,0,1,1,1,0,8,8,8,218.82692150000366,,,,,,,,,,,,,,,,,,,,,,,,,,,,,,,,,,,,,,,,,,,,,218.8169399000035,218.82692150000366,218.82692150000366,219.80967250000685,219.8095564666767,220.3425467000052,221.30847479999647,None,1,None,1,,,,,,,,,,,,,,,,,,,,,,1 - DUAL,001,2026-05-05_11h17.28.796,untitled,,2025.1.1,60.00193206295381,2026-05-05 11h17.40.349744 +0200,
U,2.wav,0,1,0,9,9,0,,,,,,,,,bloc_c.xlsx,None,1,d,1,2.1869257999933325,0.16810830000031274,,,,,,,,,,,,0,0,0,0,0,1,1,1,0,9,9,9,221.32487379999657,,,,,,,,,,,,,,,,,,,,,,,,,,,,,,,,,,,,,,,,,,,,,221.3166646000027,221.32487379999657,221.32487379999657,222.307475900001,222.3074316666646,222.84032810000645,223.8064302999992,None,1,d,1,2.1869257999933325,0.16810830000031274,,,,,,,,,,,,,,,,,,,,1 - DUAL,001,2026-05-05_11h17.28.796,untitled,,2025.1.1,60.00193206295381,2026-05-05 11h17.40.349744 +0200,
H,3.wav,1,0,0,10,10,0,,,,,,,,,bloc_c.xlsx,None,0,None,1,,,,,,,,,,,,,,0,0,0,0,0,1,1,1,0,10,10,10,223.82286230000318,,,,,,,,,,,,,,,,,,,,,,,,,,,,,,,,,,,,,,,,,,,,,223.8162350000057,223.82286230000318,223.82286230000318,224.80551770000602,224.80534266666317,225.32170970000152,226.3044341000059,None,0,None,1,,,,,,,,,,,,,,,,,,,,,,1 - DUAL,001,2026-05-05_11h17.28.796,untitled,,2025.1.1,60.00193206295381,2026-05-05 11h17.40.349744 +0200,
Z,6.wav,0,0,0,11,11,0,,,,,,,,,bloc_c.xlsx,None,1,None,1,,,,,,,,,,,,,,0,0,0,0,0,1,1,1,0,11,11,11,226.32086680000066,,,,,,,,,,,,,,,,,,,,,,,,,,,,,,,,,,,,,,,,,,,,,226.31225899999845,226.32086680000066,226.32086680000066,227.3034728000057,227.3033410666724,227.83624289999716,228.80230300000403,None,1,None,1,,,,,,,,,,,,,,,,,,,,,,1 - DUAL,001,2026-05-05_11h17.28.796,untitled,,2025.1.1,60.00193206295381,2026-05-05 11h17.40.349744 +0200,
Q,2.wav,0,0,0,12,12,0,,,,,,,,,bloc_c.xlsx,None,1,None,1,,,,,,,,,,,,,,0,0,0,0,0,1,1,1,0,12,12,12,228.81872740000836,,,,,,,,,,,,,,,,,,,,,,,,,,,,,,,,,,,,,,,,,,,,,228.80807379999897,228.81872740000836,228.81872740000836,229.80129529999977,229.80143716666888,230.31743090000236,231.30019390000962,None,1,None,1,,,,,,,,,,,,,,,,,,,,,,1 - DUAL,001,2026-05-05_11h17.28.796,untitled,,2025.1.1,60.00193206295381,2026-05-05 11h17.40.349744 +0200,
Z,1.wav,1,0,0,13,13,0,,,,,,,,,bloc_c.xlsx,None,0,d,0,0.05897790000017267,0.17528450000099838,,,,,,,,,,,,0,0,0,0,0,1,1,1,0,13,13,13,231.31668340000033,,,,,,,,,,,,,,,,,,,,,,,,,,,,,,,,,,,,,,,,,,,,,231.30297810000775,231.31668340000033,231.31668340000033,232.29932750000444,232.2993615666676,232.81554140000662,233.79817000000912,None,0,d,0,0.05897790000017267,0.17528450000099838,,,,,,,,,,,,,,,,,,,,1 - DUAL,001,2026-05-05_11h17.28.796,untitled,,2025.1.1,60.00193206295381,2026-05-05 11h17.40.349744 +0200,
N,2.wav,0,1,0,14,14,0,,,,,,,,,bloc_c.xlsx,None,1,None,0,,,,,,,,,,,,,,0,0,0,0,0,1,1,1,0,14,14,14,233.81468320000567,,,,,,,,,,,,,,,,,,,,,,,,,,,,,,,,,,,,,,,,,,,,,233.80351589999918,233.81468320000567,233.81468320000567,234.79718010000943,234.79717826667573,235.3302193999989,236.31312720000278,None,1,None,0,,,,,236.31272940000053,,,,,,,,,,,,,,,,,1 - DUAL,001,2026-05-05_11h17.28.796,untitled,,2025.1.1,60.00193206295381,2026-05-05 11h17.40.349744 +0200,
U,4.wav,0,0,0,15,15,0,,,,,,,,,bloc_c.xlsx,None,1,None,1,,,,,,,,,,,,,,0,0,0,0,0,1,1,1,0,15,15,15,236.32936340000015,,,,,,,,,,,,,,,,,,,,,,,,,,,,,,,,,,,,,,,,,,,,,236.31917160000012,236.32936340000015,236.32936340000015,237.3118761000078,237.31179116666706,237.84464979999757,238.81074329999683,None,1,None,1,,,,,,,,,,,,,,,,,,,,,,1 - DUAL,001,2026-05-05_11h17.28.796,untitled,,2025.1.1,60.00193206295381,2026-05-05 11h17.40.349744 +0200,
G,1.wav,0,0,0,16,16,0,,,,,,,,,bloc_c.xlsx,None,1,None,1,,,,,,,,,,,,,,0,0,0,0,0,1,1,1,0,16,16,16,238.82726089999778,,,,,,,,,,,,,,,,,,,,,,,,,,,,,,,,,,,,,,,,,,,,,238.81346340000164,238.82726089999778,238.82726089999778,239.8096724000061,239.80973146667046,240.32603510000627,241.30876300000818,None,1,None,1,,,,,,,,,,,,,,,,,,,,,,1 - DUAL,001,2026-05-05_11h17.28.796,untitled,,2025.1.1,60.00193206295381,2026-05-05 11h17.40.349744 +0200,
P,5.wav,0,0,0,17,17,0,,,,,,,,,bloc_c.xlsx,None,1,None,1,,,,,,,,,,,,,,0,0,0,0,0,1,1,1,0,17,17,17,241.3250965000043,,,,,,,,,,,,,,,,,,,,,,,,,,,,,,,,,,,,,,,,,,,,,241.3167381000094,241.3250965000043,241.3250965000043,242.30777769999986,242.30767396667605,242.84061759999895,243.8066536999977,None,1,None,1,,,,,,,,,,,,,,,,,,,,,,1 - DUAL,001,2026-05-05_11h17.28.796,untitled,,2025.1.1,60.00193206295381,2026-05-05 11h17.40.349744 +0200,
G,1.wav,1,1,1,18,18,0,,,,,,,,,bloc_c.xlsx,k,1,d,1,1.977453899991815,0.13629130000481382,1.9469221999897854,0.13938680000137538,,,,,,,,,,0,0,0,0,0,1,1,1,0,18,18,18,243.82309449999593,,,,,,,,,,,,,,,,,,,,,,,,,,,,,,,,,,,,,,,,,,,,,243.80993319999834,243.82309449999593,243.82309449999593,244.80570579999767,244.8057664666742,245.32194829999935,246.30457809999643,k,1,d,1,1.977453899991815,0.13629130000481382,1.9469221999897854,0.13938680000137538,,,,,,,,,,,,,,,,,,1 - DUAL,001,2026-05-05_11h17.28.796,untitled,,2025.1.1,60.00193206295381,2026-05-05 11h17.40.349744 +0200,
C,2.wav,0,0,0,19,19,0,,,,,,,,,bloc_c.xlsx,None,1,None,1,,,,,,,,,,,,,,0,0,0,0,0,1,1,1,0,19,19,19,246.32115560000238,,,,,,,,,,,,,,,,,,,,,,,,,,,,,,,,,,,,,,,,,,,,,246.3092147999996,246.32115560000238,246.32115560000238,247.3036759000097,247.30372916667355,247.8198934999964,248.80264270000043,None,1,None,1,,,,,,,,,,,,,,,,,,,,,,1 - DUAL,001,2026-05-05_11h17.28.796,untitled,,2025.1.1,60.00193206295381,2026-05-05 11h17.40.349744 +0200,
T,3.wav,0,0,0,20,20,0,,,,,,,,,bloc_c.xlsx,None,1,None,1,,,,,,,,,,,,,,0,0,0,0,0,1,1,1,0,20,20,20,248.8191191000078,,,,,,,,,,,,,,,,,,,,,,,,,,,,,,,,,,,,,,,,,,,,,248.80744170000253,248.8191191000078,248.8191191000078,249.80161170000792,249.8016835666679,250.31779500000994,251.3003538000048,None,1,None,1,,,,,,,,,,,,,,,,,,,,,,1 - DUAL,001,2026-05-05_11h17.28.796,untitled,,2025.1.1,60.00193206295381,2026-05-05 11h17.40.349744 +0200,
B,2.wav,0,1,0,21,21,0,,,,,,,,,bloc_c.xlsx,None,1,None,0,,,,,,,,,,,,,,0,0,0,0,0,1,1,1,0,21,21,21,251.31701379999868,,,,,,,,,,,,,,,,,,,,,,,,,,,,,,,,,,,,,,,,,,,,,251.30446030000167,251.31701379999868,251.31701379999868,252.2996251000004,252.29963316666934,252.81573000000208,253.79849300000933,None,1,None,0,,,,,,,,,,,,,,,,,,,,,,1 - DUAL,001,2026-05-05_11h17.28.796,untitled,,2025.1.1,60.00193206295381,2026-05-05 11h17.40.349744 +0200,
L,4.wav,0,0,0,22,22,0,,,,,,,,,bloc_c.xlsx,None,1,d,0,1.0282537000020966,0.13718440000957344,,,,,,,,,,,,0,0,0,0,0,1,1,1,0,22,22,22,253.81486399999994,,,,,,,,,,,,,,,,,,,,,,,,,,,,,,,,,,,,,,,,,,,,,253.8054007000028,253.81486399999994,253.81486399999994,254.79747790000692,254.79763676667451,255.33029220000026,256.3129886999959,None,1,d,0,1.0282537000020966,0.13718440000957344,,,256.31284929999674,,,,,,,,,,,,,,,,,1 - DUAL,001,2026-05-05_11h17.28.796,untitled,,2025.1.1,60.00193206295381,2026-05-05 11h17.40.349744 +0200,
F,3.wav,0,0,0,23,23,0,,,,,,,,,bloc_c.xlsx,None,1,None,1,,,,,,,,,,,,,,0,0,0,0,0,1,1,1,0,23,23,23,256.32955730000685,,,,,,,,,,,,,,,,,,,,,,,,,,,,,,,,,,,,,,,,,,,,,256.31808090000413,256.32955730000685,256.32955730000685,257.3119887000066,257.31194576666553,257.82831360001,258.81083560000116,None,1,None,1,,,,,,,,,,,,,,,,,,,,,,1 - DUAL,001,2026-05-05_11h17.28.796,untitled,,2025.1.1,60.00193206295381,2026-05-05 11h17.40.349744 +0200,
T,4.wav,0,1,0,24,24,0,,,,,,,,,bloc_c.xlsx,None,1,d,1,1.7785690000018803,0.16672879998805,,,,,,,,,,,,0,0,0,0,0,1,1,1,0,24,24,24,258.8274453000049,,,,,,,,,,,,,,,,,,,,,,,,,,,,,,,,,,,,,,,,,,,,,258.81735630000185,258.8274453000049,258.8274453000049,259.80985350000265,259.81008296666937,260.34296399999585,261.3090106000018,None,1,d,1,1.7785690000018803,0.16672879998805,,,261.30885169999965,,,,,,,,,,,,,,,,,1 - DUAL,001,2026-05-05_11h17.28.796,untitled,,2025.1.1,60.00193206295381,2026-05-05 11h17.40.349744 +0200,
F,6.wav,1,0,0,25,25,0,,,,,,,,,bloc_c.xlsx,None,0,None,1,,,,,,,,,,,,,,0,0,0,0,0,1,1,1,0,25,25,25,261.32536119999713,,,,,,,,,,,,,,,,,,,,,,,,,,,,,,,,,,,,,,,,,,,,,261.3155453000072,261.32536119999713,261.32536119999713,262.3078382000094,262.3080739666659,262.8242614000046,263.8068610000046,None,0,None,1,,,,,,,,,,,,,,,,,,,,,,1 - DUAL,001,2026-05-05_11h17.28.796,untitled,,2025.1.1,60.00193206295381,2026-05-05 11h17.40.349744 +0200,
D,5.wav,0,0,0,26,26,0,,,,,,,,,bloc_c.xlsx,None,1,None,1,,,,,,,,,,,,,,0,0,0,0,0,1,1,1,0,26,26,26,263.8233843000053,,,,,,,,,,,,,,,,,,,,,,,,,,,,,,,,,,,,,,,,,,,,,263.81529579999915,263.8233843000053,263.8233843000053,264.8059207000042,264.8059376666681,265.3221335999988,266.3048273000022,None,1,None,1,,,,,,,,,,,,,,,,,,,,,,1 - DUAL,001,2026-05-05_11h17.28.796,untitled,,2025.1.1,60.00193206295381,2026-05-05 11h17.40.349744 +0200,
G,6.wav,0,1,0,27,27,0,,,,,,,,,bloc_c.xlsx,None,1,None,0,,,,,,,,,,,,,,0,0,0,0,0,1,1,1,0,27,27,27,266.3212537000072,,,,,,,,,,,,,,,,,,,,,,,,,,,,,,,,,,,,,,,,,,,,,266.3118994999968,266.3212537000072,266.3212537000072,267.30377240000234,267.3038890666687,267.83663360000355,268.8027357000101,None,1,None,0,,,,,,,,,,,,,,,,,,,,,,1 - DUAL,001,2026-05-05_11h17.28.796,untitled,,2025.1.1,60.00193206295381,2026-05-05 11h17.40.349744 +0200,
E,2.wav,0,0,0,28,28,0,,,,,,,,,bloc_c.xlsx,None,1,d,0,0.13547839999955613,0.164439099986339,,,,,,,,,,,,0,0,0,0,0,1,1,1,0,28,28,28,268.81923580000876,,,,,,,,,,,,,,,,,,,,,,,,,,,,,,,,,,,,,,,,,,,,,268.80748380000296,268.81923580000876,268.81923580000876,269.8017727999977,269.8018027666733,270.31800070000463,271.30066150000494,None,1,d,0,0.13547839999955613,0.164439099986339,,,,,,,,,,,,,,,,,,,,1 - DUAL,001,2026-05-05_11h17.28.796,untitled,,2025.1.1,60.00193206295381,2026-05-05 11h17.40.349744 +0200,
G,8.wav,1,0,0,29,29,0,,,,,,,,,bloc_c.xlsx,None,0,None,1,,,,,,,,,,,,,,0,0,0,0,0,1,1,1,0,29,29,29,271.31717229999776,,,,,,,,,,,,,,,,,,,,,,,,,,,,,,,,,,,,,,,,,,,,,271.30711470000097,271.31717229999776,271.31717229999776,272.3001011000015,272.29973936666306,272.8325554000039,273.7986091000057,None,0,None,1,,,,,,,,,,,,,,,,,,,,,,1 - DUAL,001,2026-05-05_11h17.28.796,untitled,,2025.1.1,60.00193206295381,2026-05-05 11h17.40.349744 +0200,
S,5.wav,0,0,0,30,30,0,,,,,,,,,bloc_c.xlsx,None,1,d,0,2.3759860999998637,None,,,,,,,,,,,,0,0,0,0,0,1,1,1,0,30,30,30,273.81516310000734,,,,,,,,,,,,,,,,,,,,,,,,,,,,,,,,,,,,,,,,,,,,,273.8064091999986,273.81516310000734,273.81516310000734,274.7975674000045,274.79764996667313,275.31383610000194,276.3133663000044,None,1,d,0,2.3759860999998637,None,,,276.31319000000076,,,,,,,,,,,,,,,,,1 - DUAL,001,2026-05-05_11h17.28.796,untitled,,2025.1.1,60.00193206295381,2026-05-05 11h17.40.349744 +0200,
N,1.wav,0,0,0,31,31,0,,,,,,,,,bloc_c.xlsx,None,1,None,1,,,,,,,,,,,,,,0,0,0,0,0,1,1,1,0,31,31,31,276.3296902000002,,,,,,,,,,,,,,,,,,,,,,,,,,,,,,,,,,,,,,,,,,,,,276.31660069999634,276.3296902000002,276.3296902000002,277.3122621000075,277.31241106667244,277.82848979999835,278.81143830000656,None,1,None,1,,,,,,,,,,,,,,,,,,,,,,1 - DUAL,001,2026-05-05_11h17.28.796,untitled,,2025.1.1,60.00193206295381,2026-05-05 11h17.40.349744 +0200,
V,2.wav,0,0,0,32,32,0,,,,,,,,,bloc_c.xlsx,None,1,None,1,,,,,,,,,,,,,,0,0,0,0,0,1,1,1,0,32,32,32,278.8275846000033,,,,,,,,,,,,,,,,,,,,,,,,,,,,,,,,,,,,,,,,,,,,,278.81561330000113,278.8275846000033,278.8275846000033,279.8103440999985,279.81026226666677,280.3263530999975,281.3093222000025,None,1,None,1,,,,,,,,,,,,,,,,,,,,,,1 - DUAL,001,2026-05-05_11h17.28.796,untitled,,2025.1.1,60.00193206295381,2026-05-05 11h17.40.349744 +0200,
X,1.wav,0,1,0,33,33,0,,,,,,,,,bloc_c.xlsx,None,1,None,0,,,,,,,,,,,,,,0,0,0,0,0,1,1,1,0,33,33,33,281.3255627000035,,,,,,,,,,,,,,,,,,,,,,,,,,,,,,,,,,,,,,,,,,,,,281.31272159999935,281.3255627000035,281.3255627000035,282.3081031000038,282.30811556666254,282.8243824000092,283.80694660000154,None,1,None,0,,,,,,,,,,,,,,,,,,,,,,1 - DUAL,001,2026-05-05_11h17.28.796,untitled,,2025.1.1,60.00193206295381,2026-05-05 11h17.40.349744 +0200,
A,4.wav,0,0,0,34,34,0,,,,,,,,,bloc_c.xlsx,None,1,None,1,,,,,,,,,,,,,,0,0,0,0,0,1,1,1,0,34,34,34,283.82348730000376,,,,,,,,,,,,,,,,,,,,,,,,,,,,,,,,,,,,,,,,,,,,,283.81327270000475,283.82348730000376,283.82348730000376,284.8060614999995,284.80591286666845,285.3389218000084,286.3049494000006,None,1,None,1,,,,,,,,,,,,,,,,,,,,,,1 - DUAL,001,2026-05-05_11h17.28.796,untitled,,2025.1.1,60.00193206295381,2026-05-05 11h17.40.349744 +0200,
R,2.wav,0,0,0,35,35,0,,,,,,,,,bloc_c.xlsx,None,1,None,1,,,,,,,,,,,,,,0,0,0,0,0,1,1,1,0,35,35,35,286.32158220000565,,,,,,,,,,,,,,,,,,,,,,,,,,,,,,,,,,,,,,,,,,,,,286.30942720000166,286.32158220000565,286.32158220000565,287.3040295000101,287.30410996666274,287.82035170000745,288.8029908000026,None,1,None,1,,,,,,,,,,,,,,,,,,,,,,1 - DUAL,001,2026-05-05_11h17.28.796,untitled,,2025.1.1,60.00193206295381,2026-05-05 11h17.40.349744 +0200,
A,6.wav,1,0,0,36,36,0,,,,,,,,,bloc_c.xlsx,k,1,None,1,,,2.044161500001792,0.10940239999035839,,,,,,,,,,0,0,0,0,0,1,1,1,0,36,36,36,288.8195668999979,,,,,,,,,,,,,,,,,,,,,,,,,,,,,,,,,,,,,,,,,,,,,288.81042520000483,288.8195668999979,288.8195668999979,289.8019198999973,289.80197246667035,290.3181695000094,291.30096900000353,k,1,None,1,,,2.044161500001792,0.10940239999035839,,,,,,,,,,,,,,,,,,1 - DUAL,001,2026-05-05_11h17.28.796,untitled,,2025.1.1,60.00193206295381,2026-05-05 11h17.40.349744 +0200,
U,8.wav,0,0,0,37,37,0,,,,,,,,,bloc_c.xlsx,None,1,None,1,,,,,,,,,,,,,,0,0,0,0,0,1,1,1,0,37,37,37,291.3174282999971,,,,,,,,,,,,,,,,,,,,,,,,,,,,,,,,,,,,,,,,,,,,,291.30708779999986,291.3174282999971,291.3174282999971,292.2998746000085,292.2999060666664,292.8328304000024,293.7989200000011,None,1,None,1,,,,,,,,,,,,,,,,,,,,,,1 - DUAL,001,2026-05-05_11h17.28.796,untitled,,2025.1.1,60.00193206295381,2026-05-05 11h17.40.349744 +0200,
N,1.wav,0,0,0,38,38,0,,,,,,,,,bloc_c.xlsx,None,1,None,1,,,,,,,,,,,,,,0,0,0,0,0,1,1,1,0,38,38,38,293.8152917999978,,,,,,,,,,,,,,,,,,,,,,,,,,,,,,,,,,,,,,,,,,,,,293.80194089999713,293.8152917999978,293.8152917999978,294.79784440000367,294.79779626666664,295.31407750000653,296.2968297000043,None,1,None,1,,,,,,,,,,,,,,,,,,,,,,1 - DUAL,001,2026-05-05_11h17.28.796,untitled,,2025.1.1,60.00193206295381,2026-05-05 11h17.40.349744 +0200,
K,3.wav,0,0,0,39,39,0,,,,,,,,,bloc_c.xlsx,None,1,None,1,,,,,,,,,,,,,,0,0,0,0,0,1,1,1,0,39,39,39,296.3132276999968,,,,,,,,,,,,,,,,,,,,,,,,,,,,,,,,,,,,,,,,,,,,,296.30909140000585,296.3132276999968,296.3132276999968,297.29592689999845,297.29588166666895,297.81203640000604,298.81143080000766,None,1,None,1,,,,,298.8112831000035,,,,,,,,,,,,,,,,,1 - DUAL,001,2026-05-05_11h17.28.796,untitled,,2025.1.1,60.00193206295381,2026-05-05 11h17.40.349744 +0200,
N,1.wav,1,1,1,40,40,0,,,,,,,,,bloc_c.xlsx,None,0,None,0,,,,,,,,,,,,,,0,0,0,0,0,1,1,1,0,40,40,40,298.8278732000035,,,,,,,,,,,,,,,,,,,,,,,,,,,,,,,,,,,,,,,,,,,,,298.81420320000325,298.8278732000035,298.8278732000035,299.8104133000015,299.81040526666425,300.3267160999967,301.3094492000091,None,0,None,0,,,,,,,,,,,,,,,,,,,,,,1 - DUAL,001,2026-05-05_11h17.28.796,untitled,,2025.1.1,60.00193206295381,2026-05-05 11h17.40.349744 +0200,
P,8.wav,0,0,0,41,41,0,,,,,,,,,bloc_c.xlsx,None,1,None,1,,,,,,,,,,,,,,0,0,0,0,0,1,1,1,0,41,41,41,301.3258840000053,,,,,,,,,,,,,,,,,,,,,,,,,,,,,,,,,,,,,,,,,,,,,301.3152182000049,301.3258840000053,301.3258840000053,302.30843810000806,302.308438866665,302.8412116999971,303.8073279000091,None,1,None,1,,,,,,,,,,,,,,,,,,,,,,1 - DUAL,001,2026-05-05_11h17.28.796,untitled,,2025.1.1,60.00193206295381,2026-05-05 11h17.40.349744 +0200,
G,2.wav,0,0,0,42,42,0,,,,,,,,,bloc_c.xlsx,None,1,None,1,,,,,,,,,,,,,,0,0,0,0,0,1,1,1,0,42,42,42,303.82381570000143,,,,,,,,,,,,,,,,,,,,,,,,,,,,,,,,,,,,,,,,,,,,,303.81267050000315,303.82381570000143,303.82381570000143,304.806216500001,304.806302666668,305.32252680000965,306.30530839999847,None,1,None,1,,,,,,,,,,,,,,,,,,,,,,1 - DUAL,001,2026-05-05_11h17.28.796,untitled,,2025.1.1,60.00193206295381,2026-05-05 11h17.40.349744 +0200,
Q,4.wav,0,0,0,43,43,0,,,,,,,,,bloc_c.xlsx,None,1,None,1,,,,,,,,,,,,,,0,0,0,0,0,1,1,1,0,43,43,43,306.3216955000098,,,,,,,,,,,,,,,,,,,,,,,,,,,,,,,,,,,,,,,,,,,,,306.31117250000534,306.3216955000098,306.3216955000098,307.3042303999973,307.30446236666853,307.8370816000097,308.80325820000144,None,1,None,1,,,,,,,,,,,,,,,,,,,,,,1 - DUAL,001,2026-05-05_11h17.28.796,untitled,,2025.1.1,60.00193206295381,2026-05-05 11h17.40.349744 +0200,
B,6.wav,0,0,0,44,44,0,,,,,,,,,bloc_c.xlsx,None,1,None,1,,,,,,,,,,,,,,0,0,0,0,0,1,1,1,0,44,44,44,308.81961770000635,,,,,,,,,,,,,,,,,,,,,,,,,,,,,,,,,,,,,,,,,,,,,308.8108562999987,308.81961770000635,308.81961770000635,309.8021588999982,309.8022531666686,310.31854130000283,311.30131670000264,None,1,None,1,,,,,,,,,,,,,,,,,,,,,,1 - DUAL,001,2026-05-05_11h17.28.796,untitled,,2025.1.1,60.00193206295381,2026-05-05 11h17.40.349744 +0200,
Q,2.wav,1,0,0,45,45,0,,,,,,,,,bloc_c.xlsx,k,1,None,1,,,1.5511101000010967,0.1348697999928845,,,,,,,,,,0,0,0,0,0,1,1,1,0,45,45,45,311.3177078000008,,,,,,,,,,,,,,,,,,,,,,,,,,,,,,,,,,,,,,,,,,,,,311.30559280001034,311.3177078000008,311.3177078000008,312.30007920000935,312.3002736666715,312.8330321000103,313.79913430000306,k,1,None,1,,,1.5511101000010967,0.1348697999928845,,,,,,,,,,,,,,,,,,1 - DUAL,001,2026-05-05_11h17.28.796,untitled,,2025.1.1,60.00193206295381,2026-05-05 11h17.40.349744 +0200,
E,3.wav,0,0,0,46,46,0,,,,,,,,,bloc_c.xlsx,None,1,None,1,,,,,,,,,,,,,,0,0,0,0,0,1,1,1,0,46,46,46,313.81565060000867,,,,,,,,,,,,,,,,,,,,,,,,,,,,,,,,,,,,,,,,,,,,,313.8049234000064,313.81565060000867,313.81565060000867,314.79804780000995,314.7981678666731,315.3144369000074,316.297092000008,None,1,None,1,,,,,,,,,,,,,,,,,,,,,,1 - DUAL,001,2026-05-05_11h17.28.796,untitled,,2025.1.1,60.00193206295381,2026-05-05 11h17.40.349744 +0200,
U,2.wav,0,1,0,47,47,0,,,,,,,,,bloc_c.xlsx,None,1,None,0,,,,,,,,,,,,,,0,0,0,0,0,1,1,1,0,47,47,47,316.3133288999961,,,,,,,,,,,,,,,,,,,,,,,,,,,,,,,,,,,,,,,,,,,,,316.30137830000604,316.3133288999961,316.3133288999961,317.2960346000036,317.29611616666466,317.8289023999969,318.81162710000353,None,1,None,0,,,,,318.8114534000051,,,,,,,,,,,,,,,,,1 - DUAL,001,2026-05-05_11h17.28.796,untitled,,2025.1.1,60.00193206295381,2026-05-05 11h17.40.349744 +0200,
D,4.wav,0,0,0,48,48,0,,,,,,,,,bloc_c.xlsx,None,1,None,1,,,,,,,,,,,,,,0,0,0,0,0,1,1,1,0,48,48,48,318.82817649999924,,,,,,,,,,,,,,,,,,,,,,,,,,,,,,,,,,,,,,,,,,,,,318.81806830001005,318.82817649999924,318.82817649999924,319.8104893999989,319.8106598666675,320.3434137000004,321.3098564000102,None,1,None,1,,,,,,,,,,,,,,,,,,,,,,1 - DUAL,001,2026-05-05_11h17.28.796,untitled,,2025.1.1,60.00193206295381,2026-05-05 11h17.40.349744 +0200,
W,6.wav,0,0,0,49,49,0,,,,,,,,,bloc_c.xlsx,None,1,None,1,,,,,,,,,,,,,,0,0,0,0,0,1,1,1,0,49,49,49,321.32610879999993,,,,,,,,,,,,,,,,,,,,,,,,,,,,,,,,,,,,,,,,,,,,,321.31684290000703,321.32610879999993,321.32610879999993,322.30863320000935,322.3085872666745,322.8413913999975,323.8077852999995,None,1,None,1,,,,,,,,,,,,,,,,,,,,,,1 - DUAL,001,2026-05-05_11h17.28.796,untitled,,2025.1.1,60.00193206295381,2026-05-05 11h17.40.349744 +0200,
,,,,,1,1,0,,,,,,,,,bloc_c.xlsx,,,,,,,,,,,,,,,,,,0,0,0,0,0,1,1,1,,,,,,,,,,,,,,,,,,,,,,,,,,,,,,,,,,,,,,,,,,,,,,,,,,,,,,,,,,,,,,,,,,,,,,,,,,,,,,,,,,1 - DUAL,001,2026-05-05_11h17.28.796,untitled,,2025.1.1,60.00193206295381,2026-05-05 11h17.40.349744 +0200,
P,3.wav,0,0,0,0,0,0,,,,,,,,,bloc_b.xlsx,None,1,None,1,,,,,,,,,,,,,,0,0,0,0,0,2,2,2,0,0,0,0,323.82922210000106,,,,,,,,,,,,,,,,,,,,,,,,,,,,,,,,,,,,,,,,,,,,,323.82796419999795,323.82922210000106,323.82922210000106,324.80647700000554,324.80637376667096,325.32277949999843,326.3056246000051,None,1,None,1,,,,,,,,,,,,,,,,,,,,,,1 - DUAL,001,2026-05-05_11h17.28.796,untitled,,2025.1.1,60.00193206295381,2026-05-05 11h17.40.349744 +0200,
N,1.wav,0,0,0,1,1,0,,,,,,,,,bloc_b.xlsx,None,1,None,1,,,,,,,,,,,,,,0,0,0,0,0,2,2,2,0,1,1,1,326.32190350000747,,,,,,,,,,,,,,,,,,,,,,,,,,,,,,,,,,,,,,,,,,,,,326.3083381000033,326.32190350000747,326.32190350000747,327.3045198000036,327.30432416666395,327.82071830000496,328.803327600006,None,1,None,1,,,,,,,,,,,,,,,,,,,,,,1 - DUAL,001,2026-05-05_11h17.28.796,untitled,,2025.1.1,60.00193206295381,2026-05-05 11h17.40.349744 +0200,
U,2.wav,0,0,0,2,2,0,,,,,,,,,bloc_b.xlsx,None,1,None,1,,,,,,,,,,,,,,0,0,0,0,0,2,2,2,0,2,2,2,328.8198146000068,,,,,,,,,,,,,,,,,,,,,,,,,,,,,,,,,,,,,,,,,,,,,328.807575800005,328.8198146000068,328.8198146000068,329.80237200000556,329.802449066676,330.31862730000285,331.3014928000048,None,1,None,1,,,,,,,,,,,,,,,,,,,,,,1 - DUAL,001,2026-05-05_11h17.28.796,untitled,,2025.1.1,60.00193206295381,2026-05-05 11h17.40.349744 +0200,
J,6.wav,0,0,0,3,3,0,,,,,,,,,bloc_b.xlsx,None,1,None,1,,,,,,,,,,,,,,0,0,0,0,0,2,2,2,0,3,3,3,331.31790380000893,,,,,,,,,,,,,,,,,,,,,,,,,,,,,,,,,,,,,,,,,,,,,331.30795899999794,331.31790380000893,331.31790380000893,332.30037870000524,332.3004446666639,332.81669449999754,333.7993719000078,None,1,None,1,,,,,,,,,,,,,,,,,,,,,,1 - DUAL,001,2026-05-05_11h17.28.796,untitled,,2025.1.1,60.00193206295381,2026-05-05 11h17.40.349744 +0200,
U,2.wav,1,1,1,4,4,0,,,,,,,,,bloc_b.xlsx,k,1,d,1,2.138362400000915,0.15467319999879692,1.5328165000100853,0.14897339999151882,,,,,,,,,,0,0,0,0,0,2,2,2,0,4,4,4,333.81581860000733,,,,,,,,,,,,,,,,,,,,,,,,,,,,,,,,,,,,,,,,,,,,,333.8035339000053,333.81581860000733,333.81581860000733,334.79815420000523,334.7983824666628,335.31438809999963,336.29735210000945,k,1,d,1,2.138362400000915,0.15467319999879692,1.5328165000100853,0.14897339999151882,,,,,,,,,,,,,,,,,,1 - DUAL,001,2026-05-05_11h17.28.796,untitled,,2025.1.1,60.00193206295381,2026-05-05 11h17.40.349744 +0200,
F,8.wav,0,0,0,5,5,0,,,,,,,,,bloc_b.xlsx,None,1,None,1,,,,,,,,,,,,,,0,0,0,0,0,2,2,2,0,5,5,5,336.3136813000019,,,,,,,,,,,,,,,,,,,,,,,,,,,,,,,,,,,,,,,,,,,,,336.3040735999966,336.3136813000019,336.3136813000019,337.2962911000068,337.29629066666917,337.829232899996,338.8119663999969,None,1,None,1,,,,,338.8117392999993,,,,,,,,,,,,,,,,,1 - DUAL,001,2026-05-05_11h17.28.796,untitled,,2025.1.1,60.00193206295381,2026-05-05 11h17.40.349744 +0200,
V,5.wav,0,0,0,6,6,0,,,,,,,,,bloc_b.xlsx,None,1,None,1,,,,,,,,,,,,,,0,0,0,0,0,2,2,2,0,6,6,6,338.8282775999978,,,,,,,,,,,,,,,,,,,,,,,,,,,,,,,,,,,,,,,,,,,,,338.8189659000054,338.8282775999978,338.8282775999978,339.8108674999967,339.8108830666645,340.327203000008,341.3099627000047,None,1,None,1,,,,,,,,,,,,,,,,,,,,,,1 - DUAL,001,2026-05-05_11h17.28.796,untitled,,2025.1.1,60.00193206295381,2026-05-05 11h17.40.349744 +0200,
F,7.wav,1,0,0,7,7,0,,,,,,,,,bloc_b.xlsx,k,1,None,1,,,1.606341999999131,0.16639379999833182,,,,,,,,,,0,0,0,0,0,2,2,2,0,7,7,7,341.3263724999997,,,,,,,,,,,,,,,,,,,,,,,,,,,,,,,,,,,,,,,,,,,,,341.3164913000073,341.3263724999997,341.3263724999997,342.30886550000287,342.3088410666717,342.8249741000036,343.8079743999988,k,1,None,1,,,1.606341999999131,0.16639379999833182,,,,,,,,,,,,,,,,,,1 - DUAL,001,2026-05-05_11h17.28.796,untitled,,2025.1.1,60.00193206295381,2026-05-05 11h17.40.349744 +0200,
P,2.wav,0,0,0,8,8,0,,,,,,,,,bloc_b.xlsx,None,1,None,1,,,,,,,,,,,,,,0,0,0,0,0,2,2,2,0,8,8,8,343.82427969999844,,,,,,,,,,,,,,,,,,,,,,,,,,,,,,,,,,,,,,,,,,,,,343.8129629000032,343.82427969999844,343.82427969999844,344.80674369999906,344.80685936667237,345.33971790000214,346.3057618000021,None,1,None,1,,,,,,,,,,,,,,,,,,,,,,1 - DUAL,001,2026-05-05_11h17.28.796,untitled,,2025.1.1,60.00193206295381,2026-05-05 11h17.40.349744 +0200,
N,7.wav,0,1,0,9,9,0,,,,,,,,,bloc_b.xlsx,None,1,None,0,,,,,,,,,,,,,,0,0,0,0,0,2,2,2,0,9,9,9,346.32212009999785,,,,,,,,,,,,,,,,,,,,,,,,,,,,,,,,,,,,,,,,,,,,,346.3121584000037,346.32212009999785,346.32212009999785,347.30466460000025,347.30463246666864,347.83757960000366,348.80390810000245,None,1,None,0,,,,,,,,,,,,,,,,,,,,,,1 - DUAL,001,2026-05-05_11h17.28.796,untitled,,2025.1.1,60.00193206295381,2026-05-05 11h17.40.349744 +0200,
C,5.wav,0,0,0,10,10,0,,,,,,,,,bloc_b.xlsx,None,1,None,1,,,,,,,,,,,,,,0,0,0,0,0,2,2,2,0,10,10,10,348.8200836000033,,,,,,,,,,,,,,,,,,,,,,,,,,,,,,,,,,,,,,,,,,,,,348.81234499999846,348.8200836000033,348.8200836000033,349.8025684000022,349.8025665666685,350.3354585000052,351.3015593000018,None,1,None,1,,,,,,,,,,,,,,,,,,,,,,1 - DUAL,001,2026-05-05_11h17.28.796,untitled,,2025.1.1,60.00193206295381,2026-05-05 11h17.40.349744 +0200,
L,6.wav,0,0,0,11,11,0,,,,,,,,,bloc_b.xlsx,None,1,None,1,,,,,,,,,,,,,,0,0,0,0,0,2,2,2,0,11,11,11,351.3179658000008,,,,,,,,,,,,,,,,,,,,,,,,,,,,,,,,,,,,,,,,,,,,,351.3087288999959,351.3179658000008,351.3179658000008,352.300562000004,352.300645866668,352.83358430000953,353.7997622999974,None,1,None,1,,,,,,,,,,,,,,,,,,,,,,1 - DUAL,001,2026-05-05_11h17.28.796,untitled,,2025.1.1,60.00193206295381,2026-05-05 11h17.40.349744 +0200,
E,1.wav,0,0,0,12,12,0,,,,,,,,,bloc_b.xlsx,None,1,None,1,,,,,,,,,,,,,,0,0,0,0,0,2,2,2,0,12,12,12,353.8160166000016,,,,,,,,,,,,,,,,,,,,,,,,,,,,,,,,,,,,,,,,,,,,,353.80343270000594,353.8160166000016,353.8160166000016,354.7985120000085,354.79860436666445,355.3147047000093,356.29762559999654,None,1,None,1,,,,,,,,,,,,,,,,,,,,,,1 - DUAL,001,2026-05-05_11h17.28.796,untitled,,2025.1.1,60.00193206295381,2026-05-05 11h17.40.349744 +0200,
K,5.wav,0,0,0,13,13,0,,,,,,,,,bloc_b.xlsx,None,1,None,1,,,,,,,,,,,,,,0,0,0,0,0,2,2,2,0,13,13,13,356.3140055999975,,,,,,,,,,,,,,,,,,,,,,,,,,,,,,,,,,,,,,,,,,,,,356.30553209999925,356.3140055999975,356.3140055999975,357.29657289999886,357.296515366663,357.82942439999897,358.8120922000089,None,1,None,1,,,,,358.81192930000543,,,,,,,,,,,,,,,,,1 - DUAL,001,2026-05-05_11h17.28.796,untitled,,2025.1.1,60.00193206295381,2026-05-05 11h17.40.349744 +0200,
E,1.wav,1,1,1,14,14,0,,,,,,,,,bloc_b.xlsx,None,0,None,0,,,,,,,,,,,,,,0,0,0,0,0,2,2,2,0,14,14,14,358.828645600006,,,,,,,,,,,,,,,,,,,,,,,,,,,,,,,,,,,,,,,,,,,,,358.81488050000917,358.828645600006,358.828645600006,359.81098370000836,359.8109617666671,360.32744609999645,361.30978180000966,None,0,None,0,,,,,,,,,,,,,,,,,,,,,,1 - DUAL,001,2026-05-05_11h17.28.796,untitled,,2025.1.1,60.00193206295381,2026-05-05 11h17.40.349744 +0200,
U,7.wav,0,0,0,15,15,0,,,,,,,,,bloc_b.xlsx,None,1,None,1,,,,,,,,,,,,,,0,0,0,0,0,2,2,2,0,15,15,15,361.3264685000031,,,,,,,,,,,,,,,,,,,,,,,,,,,,,,,,,,,,,,,,,,,,,361.3161353000032,361.3264685000031,361.3264685000031,362.3089561000088,362.309111566665,362.82503020000877,363.80789750000986,None,1,None,1,,,,,,,,,,,,,,,,,,,,,,1 - DUAL,001,2026-05-05_11h17.28.796,untitled,,2025.1.1,60.00193206295381,2026-05-05 11h17.40.349744 +0200,
X,3.wav,0,0,0,16,16,0,,,,,,,,,bloc_b.xlsx,None,1,None,1,,,,,,,,,,,,,,0,0,0,0,0,2,2,2,0,16,16,16,363.8243380000058,,,,,,,,,,,,,,,,,,,,,,,,,,,,,,,,,,,,,,,,,,,,,363.81448620000447,363.8243380000058,363.8243380000058,364.8069189000089,364.8070116666679,365.32334109999647,366.3059348000097,None,1,None,1,,,,,,,,,,,,,,,,,,,,,,1 - DUAL,001,2026-05-05_11h17.28.796,untitled,,2025.1.1,60.00193206295381,2026-05-05 11h17.40.349744 +0200,
L,4.wav,0,0,0,17,17,0,,,,,,,,,bloc_b.xlsx,None,1,None,1,,,,,,,,,,,,,,0,0,0,0,0,2,2,2,0,17,17,17,366.322279,,,,,,,,,,,,,,,,,,,,,,,,,,,,,,,,,,,,,,,,,,,,,366.31240389999584,366.322279,366.322279,367.30501209999784,367.30495376667045,367.8379061000014,368.80366240000876,None,1,None,1,,,,,,,,,,,,,,,,,,,,,,1 - DUAL,001,2026-05-05_11h17.28.796,untitled,,2025.1.1,60.00193206295381,2026-05-05 11h17.40.349744 +0200,
B,3.wav,0,1,0,18,18,0,,,,,,,,,bloc_b.xlsx,None,1,None,0,,,,,,,,,,,,,,0,0,0,0,0,2,2,2,0,18,18,18,368.82037200000195,,,,,,,,,,,,,,,,,,,,,,,,,,,,,,,,,,,,,,,,,,,,,368.80809249999584,368.82037200000195,368.82037200000195,369.8028931000008,369.8028148666674,370.3191794000013,371.30161619999853,None,1,None,0,,,,,,,,,,,,,,,,,,,,,,1 - DUAL,001,2026-05-05_11h17.28.796,untitled,,2025.1.1,60.00193206295381,2026-05-05 11h17.40.349744 +0200,
L,5.wav,1,0,0,19,19,0,,,,,,,,,bloc_b.xlsx,k,1,None,1,,,1.5419662999920547,0.18137090001255274,,,,,,,,,,0,0,0,0,0,2,2,2,0,19,19,19,371.31831709999824,,,,,,,,,,,,,,,,,,,,,,,,,,,,,,,,,,,,,,,,,,,,,371.30952350000734,371.31831709999824,371.31831709999824,372.30083439999726,372.30080356667554,372.816988400009,373.7998799000052,k,1,None,1,,,1.5419662999920547,0.18137090001255274,,,,,,,,,,,,,,,,,,1 - DUAL,001,2026-05-05_11h17.28.796,untitled,,2025.1.1,60.00193206295381,2026-05-05 11h17.40.349744 +0200,
Q,2.wav,0,0,0,20,20,0,,,,,,,,,bloc_b.xlsx,None,1,None,1,,,,,,,,,,,,,,0,0,0,0,0,2,2,2,0,20,20,20,373.8161904000008,,,,,,,,,,,,,,,,,,,,,,,,,,,,,,,,,,,,,,,,,,,,,373.8044867999997,373.8161904000008,373.8161904000008,374.79881380000734,374.79877916667124,375.3316652000067,376.2978548000101,None,1,None,1,,,,,,,,,,,,,,,,,,,,,,1 - DUAL,001,2026-05-05_11h17.28.796,untitled,,2025.1.1,60.00193206295381,2026-05-05 11h17.40.349744 +0200,
B,7.wav,0,0,0,21,21,0,,,,,,,,,bloc_b.xlsx,None,1,None,1,,,,,,,,,,,,,,0,0,0,0,0,2,2,2,0,21,21,21,376.3141445000074,,,,,,,,,,,,,,,,,,,,,,,,,,,,,,,,,,,,,,,,,,,,,376.30461430001014,376.3141445000074,376.3141445000074,377.29680389999703,377.2967848666633,377.8129549000005,378.8123046999972,None,1,None,1,,,,,378.8121353000024,,,,,,,,,,,,,,,,,1 - DUAL,001,2026-05-05_11h17.28.796,untitled,,2025.1.1,60.00193206295381,2026-05-05 11h17.40.349744 +0200,
W,1.wav,0,0,0,22,22,0,,,,,,,,,bloc_b.xlsx,None,1,None,1,,,,,,,,,,,,,,0,0,0,0,0,2,2,2,0,22,22,22,378.82866189999913,,,,,,,,,,,,,,,,,,,,,,,,,,,,,,,,,,,,,,,,,,,,,378.8152323999966,378.82866189999913,378.82866189999913,379.8111918000068,379.81125946666384,380.32760849999613,381.3102302000043,None,1,None,1,,,,,,,,,,,,,,,,,,,,,,1 - DUAL,001,2026-05-05_11h17.28.796,untitled,,2025.1.1,60.00193206295381,2026-05-05 11h17.40.349744 +0200,
B,5.wav,1,0,0,23,23,0,,,,,,,,,bloc_b.xlsx,None,0,None,1,,,,,,,,,,,,,,0,0,0,0,0,2,2,2,0,23,23,23,381.32656970000244,,,,,,,,,,,,,,,,,,,,,,,,,,,,,,,,,,,,,,,,,,,,,381.3175273000088,381.32656970000244,381.32656970000244,382.3091829000041,382.3092414666646,382.8421679000021,383.8081668000086,None,0,None,1,,,,,,,,,,,,,,,,,,,,,,1 - DUAL,001,2026-05-05_11h17.28.796,untitled,,2025.1.1,60.00193206295381,2026-05-05 11h17.40.349744 +0200,
P,1.wav,0,1,0,24,24,0,,,,,,,,,bloc_b.xlsx,None,1,None,0,,,,,,,,,,,,,,0,0,0,0,0,2,2,2,0,24,24,24,383.82473229999596,,,,,,,,,,,,,,,,,,,,,,,,,,,,,,,,,,,,,,,,,,,,,383.81122580000374,383.82473229999596,383.82473229999596,384.8073207999987,384.80716466666877,385.32336470000155,386.30586980000953,None,1,None,0,,,,,,,,,,,,,,,,,,,,,,1 - DUAL,001,2026-05-05_11h17.28.796,untitled,,2025.1.1,60.00193206295381,2026-05-05 11h17.40.349744 +0200,
L,7.wav,0,0,0,25,25,0,,,,,,,,,bloc_b.xlsx,None,1,None,1,,,,,,,,,,,,,,0,0,0,0,0,2,2,2,0,25,25,25,386.3224024000083,,,,,,,,,,,,,,,,,,,,,,,,,,,,,,,,,,,,,,,,,,,,,386.3126565999992,386.3224024000083,386.3224024000083,387.3048925000039,387.30494066667256,387.8213606000063,388.804235100004,None,1,None,1,,,,,388.80392610000854,,,,,,,,,,,,,,,,,1 - DUAL,001,2026-05-05_11h17.28.796,untitled,,2025.1.1,60.00193206295381,2026-05-05 11h17.40.349744 +0200,
D,6.wav,0,0,0,26,26,0,,,,,,,,,bloc_b.xlsx,None,1,None,1,,,,,,,,,,,,,,0,0,0,0,0,2,2,2,0,26,26,26,388.820452800006,,,,,,,,,,,,,,,,,,,,,,,,,,,,,,,,,,,,,,,,,,,,,388.8136685000063,388.820452800006,388.820452800006,389.80314669999643,389.8029713666658,390.31936829999904,391.3021039000014,None,1,None,1,,,,,,,,,,,,,,,,,,,,,,1 - DUAL,001,2026-05-05_11h17.28.796,untitled,,2025.1.1,60.00193206295381,2026-05-05 11h17.40.349744 +0200,
S,3.wav,0,0,0,27,27,0,,,,,,,,,bloc_b.xlsx,None,1,None,1,,,,,,,,,,,,,,0,0,0,0,0,2,2,2,0,27,27,27,391.31853230000706,,,,,,,,,,,,,,,,,,,,,,,,,,,,,,,,,,,,,,,,,,,,,391.30704230000265,391.31853230000706,391.31853230000706,392.30092629999854,392.30105356667286,392.8173988000053,393.79992430000857,None,1,None,1,,,,,393.79980480000086,,,,,,,,,,,,,,,,,1 - DUAL,001,2026-05-05_11h17.28.796,untitled,,2025.1.1,60.00193206295381,2026-05-05 11h17.40.349744 +0200,
W,8.wav,0,0,0,28,28,0,,,,,,,,,bloc_b.xlsx,None,1,None,1,,,,,,,,,,,,,,0,0,0,0,0,2,2,2,0,28,28,28,393.8165003000031,,,,,,,,,,,,,,,,,,,,,,,,,,,,,,,,,,,,,,,,,,,,,393.80626420000044,393.8165003000031,393.8165003000031,394.7988966999983,394.79906286666323,395.3316327000066,396.29786170000443,None,1,None,1,,,,,,,,,,,,,,,,,,,,,,1 - DUAL,001,2026-05-05_11h17.28.796,untitled,,2025.1.1,60.00193206295381,2026-05-05 11h17.40.349744 +0200,
L,3.wav,0,1,0,29,29,0,,,,,,,,,bloc_b.xlsx,None,1,None,0,,,,,,,,,,,,,,0,0,0,0,0,2,2,2,0,29,29,29,396.31430980000005,,,,,,,,,,,,,,,,,,,,,,,,,,,,,,,,,,,,,,,,,,,,,396.3031955000042,396.31430980000005,396.31430980000005,397.2969301999983,397.2971149666739,397.8298641000001,398.81237559999863,None,1,None,0,,,,,398.81226920000336,,,,,,,,,,,,,,,,,1 - DUAL,001,2026-05-05_11h17.28.796,untitled,,2025.1.1,60.00193206295381,2026-05-05 11h17.40.349744 +0200,
W,6.wav,1,0,0,30,30,0,,,,,,,,,bloc_b.xlsx,None,0,None,1,,,,,,,,,,,,,,0,0,0,0,0,2,2,2,0,30,30,30,398.82898760000535,,,,,,,,,,,,,,,,,,,,,,,,,,,,,,,,,,,,,,,,,,,,,398.81889900000533,398.82898760000535,398.82898760000535,399.8115235000005,399.8113807666707,400.32771050000156,401.31040630000643,None,0,None,1,,,,,,,,,,,,,,,,,,,,,,1 - DUAL,001,2026-05-05_11h17.28.796,untitled,,2025.1.1,60.00193206295381,2026-05-05 11h17.40.349744 +0200,
H,1.wav,0,0,0,31,31,0,,,,,,,,,bloc_b.xlsx,None,1,None,1,,,,,,,,,,,,,,0,0,0,0,0,2,2,2,0,31,31,31,401.327051500004,,,,,,,,,,,,,,,,,,,,,,,,,,,,,,,,,,,,,,,,,,,,,401.3133034000057,401.327051500004,401.327051500004,402.3097126000066,402.30944116667183,402.82556090000435,403.8087940999976,None,1,None,1,,,,,,,,,,,,,,,,,,,,,,1 - DUAL,001,2026-05-05_11h17.28.796,untitled,,2025.1.1,60.00193206295381,2026-05-05 11h17.40.349744 +0200,
Y,4.wav,0,0,0,32,32,0,,,,,,,,,bloc_b.xlsx,None,1,None,1,,,,,,,,,,,,,,0,0,0,0,0,2,2,2,0,32,32,32,403.8249342000054,,,,,,,,,,,,,,,,,,,,,,,,,,,,,,,,,,,,,,,,,,,,,403.81567480000376,403.8249342000054,403.8249342000054,404.807467599996,404.80733846666794,405.34048240000266,406.30635430000257,None,1,None,1,,,,,,,,,,,,,,,,,,,,,,1 - DUAL,001,2026-05-05_11h17.28.796,untitled,,2025.1.1,60.00193206295381,2026-05-05 11h17.40.349744 +0200,
R,1.wav,0,1,0,33,33,0,,,,,,,,,bloc_b.xlsx,None,1,None,0,,,,,,,,,,,,,,0,0,0,0,0,2,2,2,0,33,33,33,406.32278139999835,,,,,,,,,,,,,,,,,,,,,,,,,,,,,,,,,,,,,,,,,,,,,406.3105171000061,406.32278139999835,406.32278139999835,407.30520960000285,407.3053929666678,407.8049480000045,408.8043536000041,None,1,None,0,,,,,,,,,,,,,,,,,,,,,,1 - DUAL,001,2026-05-05_11h17.28.796,untitled,,2025.1.1,60.00193206295381,2026-05-05 11h17.40.349744 +0200,
J,8.wav,0,0,0,34,34,0,,,,,,,,,bloc_b.xlsx,None,1,None,1,,,,,,,,,,,,,,0,0,0,0,0,2,2,2,0,34,34,34,408.82083270000294,,,,,,,,,,,,,,,,,,,,,,,,,,,,,,,,,,,,,,,,,,,,,408.8101560000068,408.82083270000294,408.82083270000294,409.8033052000101,409.80526076666524,410.33624030000647,411.30243640000117,None,1,None,1,,,,,,,,,,,,,,,,,,,,,,1 - DUAL,001,2026-05-05_11h17.28.796,untitled,,2025.1.1,60.00193206295381,2026-05-05 11h17.40.349744 +0200,
R,5.wav,1,0,0,35,35,0,,,,,,,,,bloc_b.xlsx,None,0,None,1,,,,,,,,,,,,,,0,0,0,0,0,2,2,2,0,35,35,35,411.31882320001023,,,,,,,,,,,,,,,,,,,,,,,,,,,,,,,,,,,,,,,,,,,,,411.3102121999982,411.31882320001023,411.31882320001023,412.3012837999995,412.30129226667145,412.8342591999972,413.8001032000029,None,0,None,1,,,,,,,,,,,,,,,,,,,,,,1 - DUAL,001,2026-05-05_11h17.28.796,untitled,,2025.1.1,60.00193206295381,2026-05-05 11h17.40.349744 +0200,
S,2.wav,0,0,0,36,36,0,,,,,,,,,bloc_b.xlsx,None,1,None,1,,,,,,,,,,,,,,0,0,0,0,0,2,2,2,0,36,36,36,413.81668089999584,,,,,,,,,,,,,,,,,,,,,,,,,,,,,,,,,,,,,,,,,,,,,413.8046222999983,413.81668089999584,413.81668089999584,414.7990537000005,414.7991131666679,415.31556440000713,416.2980893000058,None,1,None,1,,,,,,,,,,,,,,,,,,,,,,1 - DUAL,001,2026-05-05_11h17.28.796,untitled,,2025.1.1,60.00193206295381,2026-05-05 11h17.40.349744 +0200,
W,5.wav,0,1,0,37,37,0,,,,,,,,,bloc_b.xlsx,None,1,d,1,1.6986274999944726,0.17314369999803603,,,,,,,,,,,,0,0,0,0,0,2,2,2,0,37,37,37,416.31456260000414,,,,,,,,,,,,,,,,,,,,,,,,,,,,,,,,,,,,,,,,,,,,,416.3052572000015,416.31456260000414,416.31456260000414,417.2971339000069,417.29714156667274,417.8299412000051,418.81274490000214,None,1,d,1,1.6986274999944726,0.17314369999803603,,,418.81260410000687,,,,,,,,,,,,,,,,,1 - DUAL,001,2026-05-05_11h17.28.796,untitled,,2025.1.1,60.00193206295381,2026-05-05 11h17.40.349744 +0200,
S,8.wav,1,0,0,38,38,0,,,,,,,,,bloc_b.xlsx,None,0,None,1,,,,,,,,,,,,,,0,0,0,0,0,2,2,2,0,38,38,38,418.8290265999967,,,,,,,,,,,,,,,,,,,,,,,,,,,,,,,,,,,,,,,,,,,,,418.8186557000008,418.8290265999967,418.8290265999967,419.8117059000069,419.8116571666653,420.3446944000025,421.31058450001,None,0,None,1,,,,,,,,,,,,,,,,,,,,,,1 - DUAL,001,2026-05-05_11h17.28.796,untitled,,2025.1.1,60.00193206295381,2026-05-05 11h17.40.349744 +0200,
V,1.wav,0,0,0,39,39,0,,,,,,,,,bloc_b.xlsx,None,1,None,1,,,,,,,,,,,,,,0,0,0,0,0,2,2,2,0,39,39,39,421.32719130000623,,,,,,,,,,,,,,,,,,,,,,,,,,,,,,,,,,,,,,,,,,,,,421.3145067000005,421.32719130000623,421.32719130000623,422.309777500006,422.30975976666764,422.8258594000072,423.8084974000085,None,1,None,1,,,,,,,,,,,,,,,,,,,,,,1 - DUAL,001,2026-05-05_11h17.28.796,untitled,,2025.1.1,60.00193206295381,2026-05-05 11h17.40.349744 +0200,
M,4.wav,0,0,0,40,40,0,,,,,,,,,bloc_b.xlsx,None,1,None,1,,,,,,,,,,,,,,0,0,0,0,0,2,2,2,0,40,40,40,423.82496790000005,,,,,,,,,,,,,,,,,,,,,,,,,,,,,,,,,,,,,,,,,,,,,423.8147326000035,423.82496790000005,423.82496790000005,424.8077553000039,424.80762146666916,425.3237769999978,426.3067209000001,None,1,None,1,,,,,,,,,,,,,,,,,,,,,,1 - DUAL,001,2026-05-05_11h17.28.796,untitled,,2025.1.1,60.00193206295381,2026-05-05 11h17.40.349744 +0200,
H,5.wav,0,0,0,41,41,0,,,,,,,,,bloc_b.xlsx,None,1,None,1,,,,,,,,,,,,,,0,0,0,0,0,2,2,2,0,41,41,41,426.32307250000304,,,,,,,,,,,,,,,,,,,,,,,,,,,,,,,,,,,,,,,,,,,,,426.3137695000041,426.32307250000304,426.32307250000304,427.30573160000495,427.30556036667645,427.82182170001033,428.80476929999713,None,1,None,1,,,,,,,,,,,,,,,,,,,,,,1 - DUAL,001,2026-05-05_11h17.28.796,untitled,,2025.1.1,60.00193206295381,2026-05-05 11h17.40.349744 +0200,
S,2.wav,0,0,0,42,42,0,,,,,,,,,bloc_b.xlsx,None,1,None,1,,,,,,,,,,,,,,0,0,0,0,0,2,2,2,0,42,42,42,428.8209555000067,,,,,,,,,,,,,,,,,,,,,,,,,,,,,,,,,,,,,,,,,,,,,428.8091429000051,428.8209555000067,428.8209555000067,429.80365529999835,429.80346326667154,430.31977760000154,431.30247360000794,None,1,None,1,,,,,,,,,,,,,,,,,,,,,,1 - DUAL,001,2026-05-05_11h17.28.796,untitled,,2025.1.1,60.00193206295381,2026-05-05 11h17.40.349744 +0200,
H,5.wav,1,1,1,43,43,0,,,,,,,,,bloc_b.xlsx,None,0,d,1,2.169615100006922,0.13960619999852497,,,,,,,,,,,,0,0,0,0,0,2,2,2,0,43,43,43,431.3189165000076,,,,,,,,,,,,,,,,,,,,,,,,,,,,,,,,,,,,,,,,,,,,,431.3098278999969,431.3189165000076,431.3189165000076,432.30137610000384,432.30153796666514,432.8178409000102,433.8005123000039,None,0,d,1,2.169615100006922,0.13960619999852497,,,,,,,,,,,,,,,,,,,,1 - DUAL,001,2026-05-05_11h17.28.796,untitled,,2025.1.1,60.00193206295381,2026-05-05 11h17.40.349744 +0200,
U,6.wav,0,0,0,44,44,0,,,,,,,,,bloc_b.xlsx,None,1,None,1,,,,,,,,,,,,,,0,0,0,0,0,2,2,2,0,44,44,44,433.81681590000517,,,,,,,,,,,,,,,,,,,,,,,,,,,,,,,,,,,,,,,,,,,,,433.80686369999603,433.81681590000517,433.81681590000517,434.7994145999983,434.79948236667065,435.3323123000009,436.29831739999645,None,1,None,1,,,,,,,,,,,,,,,,,,,,,,1 - DUAL,001,2026-05-05_11h17.28.796,untitled,,2025.1.1,60.00193206295381,2026-05-05 11h17.40.349744 +0200,
W,3.wav,0,0,0,45,45,0,,,,,,,,,bloc_b.xlsx,None,1,None,1,,,,,,,,,,,,,,0,0,0,0,0,2,2,2,0,45,45,45,436.3149029000051,,,,,,,,,,,,,,,,,,,,,,,,,,,,,,,,,,,,,,,,,,,,,436.30321540001023,436.3149029000051,436.3149029000051,437.2974009000027,437.2972768666698,437.8301999999967,438.81304799999634,None,1,None,1,,,,,438.8127993000089,,,,,,,,,,,,,,,,,1 - DUAL,001,2026-05-05_11h17.28.796,untitled,,2025.1.1,60.00193206295381,2026-05-05 11h17.40.349744 +0200,
J,6.wav,0,1,0,46,46,0,,,,,,,,,bloc_b.xlsx,None,1,d,1,1.682154800000717,0.13974069998948835,,,,,,,,,,,,0,0,0,0,0,2,2,2,0,46,46,46,438.82959789999586,,,,,,,,,,,,,,,,,,,,,,,,,,,,,,,,,,,,,,,,,,,,,438.81947180000134,438.82959789999586,438.82959789999586,439.812084899997,439.8119046666727,440.3282498000044,441.31109780000406,None,1,d,1,1.682154800000717,0.13974069998948835,,,,,,,,,,,,,,,,,,,,1 - DUAL,001,2026-05-05_11h17.28.796,untitled,,2025.1.1,60.00193206295381,2026-05-05 11h17.40.349744 +0200,
M,5.wav,0,0,0,47,47,0,,,,,,,,,bloc_b.xlsx,None,1,None,1,,,,,,,,,,,,,,0,0,0,0,0,2,2,2,0,47,47,47,441.32743820000906,,,,,,,,,,,,,,,,,,,,,,,,,,,,,,,,,,,,,,,,,,,,,441.3188113000069,441.32743820000906,441.32743820000906,442.3097858999972,442.30987906667383,442.84279690000403,443.8088851000066,None,1,None,1,,,,,,,,,,,,,,,,,,,,,,1 - DUAL,001,2026-05-05_11h17.28.796,untitled,,2025.1.1,60.00193206295381,2026-05-05 11h17.40.349744 +0200,
J,1.wav,1,0,0,48,48,0,,,,,,,,,bloc_b.xlsx,None,0,None,1,,,,,,,,,,,,,,0,0,0,0,0,2,2,2,0,48,48,48,443.8252419000055,,,,,,,,,,,,,,,,,,,,,,,,,,,,,,,,,,,,,,,,,,,,,443.8120052000013,443.8252419000055,443.8252419000055,444.8078818000067,444.807928866667,445.32409510000434,446.30680950000533,None,0,None,1,,,,,,,,,,,,,,,,,,,,,,1 - DUAL,001,2026-05-05_11h17.28.796,untitled,,2025.1.1,60.00193206295381,2026-05-05 11h17.40.349744 +0200,
B,7.wav,0,0,0,49,49,0,,,,,,,,,bloc_b.xlsx,None,1,None,1,,,,,,,,,,,,,,0,0,0,0,0,2,2,2,0,49,49,49,446.32319409999764,,,,,,,,,,,,,,,,,,,,,,,,,,,,,,,,,,,,,,,,,,,,,446.3136972000066,446.32319409999764,446.32319409999764,447.30588149999676,447.30582246666404,447.8219889000029,448.8051882,None,1,None,1,,,,,,,,,,,,,,,,,,,,,,1 - DUAL,001,2026-05-05_11h17.28.796,untitled,,2025.1.1,60.00193206295381,2026-05-05 11h17.40.349744 +0200,
,,,,,2,2,0,,,,,,,,,bloc_b.xlsx,,,,,,,,,,,,,,,,,,0,0,0,0,0,2,2,2,,,,,,,,,,,,,,,,,,,,,,,,,,,,,,,,,,,,,,,,,,,,,,,,,,,,,,,,,,,,,,,,,,,,,,,,,,,,,,,,,,1 - DUAL,001,2026-05-05_11h17.28.796,untitled,,2025.1.1,60.00193206295381,2026-05-05 11h17.40.349744 +0200,
,,,,,0,0,0,,,,,,,,,,,,,,,,,,6.0,40.9134575999924,1,[43.35205339999811],[43.35205820000556],,,,,0,0,0,0,,,,,,,,,,,,,,,,,,,,,,,,,,,,,,,,,,,,,,,,,,,,,,,,,,,,,,,,,,,,,,,,,,,,,,448.8264261000004,448.86842539999634,448.86842539999634,448.86842539999634,448.86842539999634,448.86842539999634,492.2211118999985,6.0,40.9134575999924,1,[43.35205339999811],[43.35205820000556],,,,,1 - DUAL,001,2026-05-05_11h17.28.796,untitled,,2025.1.1,60.00193206295381,2026-05-05 11h17.40.349744 +0200,
Z,6.wav,0,0,0,0,0,0,,,,,,,,,bloc_c.xlsx,None,1,None,1,,,,,,,,,,,,,,1,0,1,0,0,0,0,1,0,0,0,0,492.2406539000076,,,,,,,,,,,,,,,,,,,,,,,,,,,,,,,,,,,,,,,,,,,,,492.2390143000084,492.2406539000076,492.2406539000076,493.2345795000001,493.234713566668,493.7678135000024,494.7335394999973,None,1,None,1,,,,,,,,,,,,,,,,,,,,,,1 - DUAL,001,2026-05-05_11h17.28.796,untitled,,2025.1.1,60.00193206295381,2026-05-05 11h17.40.349744 +0200,
M,7.wav,0,0,0,1,1,0,,,,,,,,,bloc_c.xlsx,None,1,None,0,,,,,,,,,,,,,,1,0,1,0,0,0,0,1,0,1,1,1,494.750005599999,,,,,,,,,,,,,,,,,,,,,,,,,,,,,,,,,,,,,,,,,,,,,494.73962170000596,494.750005599999,494.750005599999,495.7326730000059,495.7324393666679,496.24890610000875,497.2315512000059,None,1,None,0,,,,,,,,,,,,,,,,,,,,,,1 - DUAL,001,2026-05-05_11h17.28.796,untitled,,2025.1.1,60.00193206295381,2026-05-05 11h17.40.349744 +0200,
Z,1.wav,1,0,0,2,2,0,,,,,,,,,bloc_c.xlsx,None,0,None,1,,,,,,,,,,,,,,1,0,1,0,0,0,0,1,0,2,2,2,497.2480360000045,,,,,,,,,,,,,,,,,,,,,,,,,,,,,,,,,,,,,,,,,,,,,497.234500400009,497.2480360000045,497.2480360000045,498.2306093000079,498.2306776666703,498.7467788000067,499.7300993999961,None,0,None,1,,,,,,,,,,,,,,,,,,,,,,1 - DUAL,001,2026-05-05_11h17.28.796,untitled,,2025.1.1,60.00193206295381,2026-05-05 11h17.40.349744 +0200,
E,8.wav,0,0,0,3,3,0,,,,,,,,,bloc_c.xlsx,k,0,None,1,,,0.884432699996978,0.13798590000078548,,,,,,,,,,1,0,1,0,0,0,0,1,0,3,3,3,499.74596929999825,,,,,,,,,,,,,,,,,,,,,,,,,,,,,,,,,,,,,,,,,,,,,499.73725790000753,499.74596929999825,499.74596929999825,500.72853180000675,500.72846606666667,501.26148630000534,502.22736469999654,k,0,None,1,,,0.884432699996978,0.13798590000078548,,,,,,,,,,,,,,,,,,1 - DUAL,001,2026-05-05_11h17.28.796,untitled,,2025.1.1,60.00193206295381,2026-05-05 11h17.40.349744 +0200,
R,3.wav,0,0,0,4,4,0,,,,,,,,,bloc_c.xlsx,None,1,None,1,,,,,,,,,,,,,,1,0,1,0,0,0,0,1,0,4,4,4,502.2441094000096,,,,,,,,,,,,,,,,,,,,,,,,,,,,,,,,,,,,,,,,,,,,,502.2323749000061,502.2441094000096,502.2441094000096,503.2264489000081,503.2265061666733,503.75942270000814,504.72564879999845,None,1,None,1,,,,,,,,,,,,,,,,,,,,,,1 - DUAL,001,2026-05-05_11h17.28.796,untitled,,2025.1.1,60.00193206295381,2026-05-05 11h17.40.349744 +0200,
J,8.wav,0,1,0,5,5,0,,,,,,,,,bloc_c.xlsx,None,1,None,0,,,,,,,,,,,,,,1,0,1,0,0,0,0,1,0,5,5,5,504.7419254999986,,,,,,,,,,,,,,,,,,,,,,,,,,,,,,,,,,,,,,,,,,,,,504.73208180000074,504.7419254999986,504.7419254999986,505.72433840000303,505.72434536666356,506.2573384999996,507.22325029999774,None,1,None,0,,,,,,,,,,,,,,,,,,,,,,1 - DUAL,001,2026-05-05_11h17.28.796,untitled,,2025.1.1,60.00193206295381,2026-05-05 11h17.40.349744 +0200,
R,5.wav,1,0,0,6,6,0,,,,,,,,,bloc_c.xlsx,None,0,None,1,,,,,,,,,,,,,,1,0,1,0,0,0,0,1,0,6,6,6,507.2397109000012,,,,,,,,,,,,,,,,,,,,,,,,,,,,,,,,,,,,,,,,,,,,,507.23025320000306,507.2397109000012,507.2397109000012,508.222299800007,508.222477966676,508.73857850000786,509.7214865999995,None,0,None,1,,,,,,,,,,,,,,,,,,,,,,1 - DUAL,001,2026-05-05_11h17.28.796,untitled,,2025.1.1,60.00193206295381,2026-05-05 11h17.40.349744 +0200,
Q,2.wav,0,0,0,7,7,0,,,,,,,,,bloc_c.xlsx,None,1,None,1,,,,,,,,,,,,,,1,0,1,0,0,0,0,1,0,7,7,7,509.73776770000404,,,,,,,,,,,,,,,,,,,,,,,,,,,,,,,,,,,,,,,,,,,,,509.72676240000874,509.73776770000404,509.73776770000404,510.7204516000056,510.7203425666705,511.23653110000305,512.2359104000061,None,1,None,1,,,,,512.2357045999961,,,,,,,,,,,,,,,,,1 - DUAL,001,2026-05-05_11h17.28.796,untitled,,2025.1.1,60.00193206295381,2026-05-05 11h17.40.349744 +0200,
H,6.wav,0,0,0,8,8,0,,,,,,,,,bloc_c.xlsx,None,1,None,1,,,,,,,,,,,,,,1,0,1,0,0,0,0,1,0,8,8,8,512.2523865999974,,,,,,,,,,,,,,,,,,,,,,,,,,,,,,,,,,,,,,,,,,,,,512.2428370999987,512.2523865999974,512.2523865999974,513.2349145000044,513.2349588666732,513.7510638000094,514.7338294000074,None,1,None,1,,,,,,,,,,,,,,,,,,,,,,1 - DUAL,001,2026-05-05_11h17.28.796,untitled,,2025.1.1,60.00193206295381,2026-05-05 11h17.40.349744 +0200,
U,2.wav,0,1,0,9,9,0,,,,,,,,,bloc_c.xlsx,None,1,None,0,,,,,,,,,,,,,,1,0,1,0,0,0,0,1,0,9,9,9,514.750546299998,,,,,,,,,,,,,,,,,,,,,,,,,,,,,,,,,,,,,,,,,,,,,514.7385160999984,514.750546299998,514.750546299998,515.7328517999995,515.7328406666677,516.2490266000095,517.2320378000004,None,1,None,0,,,,,,,,,,,,,,,,,,,,,,1 - DUAL,001,2026-05-05_11h17.28.796,untitled,,2025.1.1,60.00193206295381,2026-05-05 11h17.40.349744 +0200,
H,3.wav,1,0,0,10,10,0,,,,,,,,,bloc_c.xlsx,None,0,None,1,,,,,,,,,,,,,,1,0,1,0,0,0,0,1,0,10,10,10,517.2483190000057,,,,,,,,,,,,,,,,,,,,,,,,,,,,,,,,,,,,,,,,,,,,,517.2371487000055,517.2483190000057,517.2483190000057,518.2306489000039,518.2307274666712,518.7637123000022,519.7299525999988,None,0,None,1,,,,,519.7298177000048,,,,,,,,,,,,,,,,,1 - DUAL,001,2026-05-05_11h17.28.796,untitled,,2025.1.1,60.00193206295381,2026-05-05 11h17.40.349744 +0200,
Z,6.wav,0,0,0,11,11,0,,,,,,,,,bloc_c.xlsx,None,1,d,0,2.0825440999906277,0.161624500004109,,,,,,,,,,,,1,0,1,0,0,0,0,1,0,11,11,11,519.7462311999989,,,,,,,,,,,,,,,,,,,,,,,,,,,,,,,,,,,,,,,,,,,,,519.7364459000091,519.7462311999989,519.7462311999989,520.7288238000037,520.7286814666625,521.2449052000011,522.2274657000089,None,1,d,0,2.0825440999906277,0.161624500004109,,,,,,,,,,,,,,,,,,,,1 - DUAL,001,2026-05-05_11h17.28.796,untitled,,2025.1.1,60.00193206295381,2026-05-05 11h17.40.349744 +0200,
Q,2.wav,0,0,0,12,12,0,,,,,,,,,bloc_c.xlsx,None,1,None,1,,,,,,,,,,,,,,1,0,1,0,0,0,0,1,0,12,12,12,522.2441820000095,,,,,,,,,,,,,,,,,,,,,,,,,,,,,,,,,,,,,,,,,,,,,522.2319846000028,522.2441820000095,522.2441820000095,523.2266339000053,523.2266862666768,523.7597564000025,524.7257361000084,None,1,None,1,,,,,,,,,,,,,,,,,,,,,,1 - DUAL,001,2026-05-05_11h17.28.796,untitled,,2025.1.1,60.00193206295381,2026-05-05 11h17.40.349744 +0200,
Z,1.wav,1,0,0,13,13,0,,,,,,,,,bloc_c.xlsx,None,0,None,1,,,,,,,,,,,,,,1,0,1,0,0,0,0,1,0,13,13,13,524.7421104000096,,,,,,,,,,,,,,,,,,,,,,,,,,,,,,,,,,,,,,,,,,,,,524.7291376000067,524.7421104000096,524.7421104000096,525.7246605999972,525.7247437666704,526.2240993000014,527.223750899997,None,0,None,1,,,,,,,,,,,,,,,,,,,,,,1 - DUAL,001,2026-05-05_11h17.28.796,untitled,,2025.1.1,60.00193206295381,2026-05-05 11h17.40.349744 +0200,
N,2.wav,0,1,0,14,14,0,,,,,,,,,bloc_c.xlsx,None,1,d,1,1.7513191000034567,0.15245969999523368,,,,,,,,,,,,1,0,1,0,0,0,0,1,0,14,14,14,527.2400074000034,,,,,,,,,,,,,,,,,,,,,,,,,,,,,,,,,,,,,,,,,,,,,527.227573199998,527.2400074000034,527.2400074000034,528.2228557000053,528.2226478666746,528.7388716999994,529.7213741000014,None,1,d,1,1.7513191000034567,0.15245969999523368,,,,,,,,,,,,,,,,,,,,1 - DUAL,001,2026-05-05_11h17.28.796,untitled,,2025.1.1,60.00193206295381,2026-05-05 11h17.40.349744 +0200,
U,4.wav,0,0,0,15,15,0,,,,,,,,,bloc_c.xlsx,None,1,None,1,,,,,,,,,,,,,,1,0,1,0,0,0,0,1,0,15,15,15,529.7380572999973,,,,,,,,,,,,,,,,,,,,,,,,,,,,,,,,,,,,,,,,,,,,,529.7270531999966,529.7380572999973,529.7380572999973,530.7205327999982,530.7205975666768,531.2366786000057,532.2360774999979,None,1,None,1,,,,,532.2359275000053,,,,,,,,,,,,,,,,,1 - DUAL,001,2026-05-05_11h17.28.796,untitled,,2025.1.1,60.00193206295381,2026-05-05 11h17.40.349744 +0200,
G,1.wav,0,0,0,16,16,0,,,,,,,,,bloc_c.xlsx,None,1,None,1,,,,,,,,,,,,,,1,0,1,0,0,0,0,1,0,16,16,16,532.2525869000092,,,,,,,,,,,,,,,,,,,,,,,,,,,,,,,,,,,,,,,,,,,,,532.2398850000027,532.2525869000092,532.2525869000092,533.2351781000034,533.2352436666736,533.7346973000094,534.7339800000045,None,1,None,1,,,,,,,,,,,,,,,,,,,,,,1 - DUAL,001,2026-05-05_11h17.28.796,untitled,,2025.1.1,60.00193206295381,2026-05-05 11h17.40.349744 +0200,
P,5.wav,0,0,0,17,17,0,,,,,,,,,bloc_c.xlsx,None,1,None,1,,,,,,,,,,,,,,1,0,1,0,0,0,0,1,0,17,17,17,534.7505364000099,,,,,,,,,,,,,,,,,,,,,,,,,,,,,,,,,,,,,,,,,,,,,534.7407738000038,534.7505364000099,534.7505364000099,535.7330987000023,535.7329263666654,536.2492464000097,537.2319339999958,None,1,None,1,,,,,,,,,,,,,,,,,,,,,,1 - DUAL,001,2026-05-05_11h17.28.796,untitled,,2025.1.1,60.00193206295381,2026-05-05 11h17.40.349744 +0200,
G,1.wav,1,1,1,18,18,0,,,,,,,,,bloc_c.xlsx,None,0,None,0,,,,,,,,,,,,,,1,0,1,0,0,0,0,1,0,18,18,18,537.24837690001,,,,,,,,,,,,,,,,,,,,,,,,,,,,,,,,,,,,,,,,,,,,,537.2348072000023,537.24837690001,537.24837690001,538.2310180000059,538.231057666668,538.7472245000099,539.7299450999999,None,0,None,0,,,,,,,,,,,,,,,,,,,,,,1 - DUAL,001,2026-05-05_11h17.28.796,untitled,,2025.1.1,60.00193206295381,2026-05-05 11h17.40.349744 +0200,
C,2.wav,0,0,0,19,19,0,,,,,,,,,bloc_c.xlsx,None,1,None,1,,,,,,,,,,,,,,1,0,1,0,0,0,0,1,0,19,19,19,539.746433399996,,,,,,,,,,,,,,,,,,,,,,,,,,,,,,,,,,,,,,,,,,,,,539.7342453000019,539.746433399996,539.746433399996,540.7289286000014,540.7290402666733,541.2452896000032,542.2280604999978,None,1,None,1,,,,,,,,,,,,,,,,,,,,,,1 - DUAL,001,2026-05-05_11h17.28.796,untitled,,2025.1.1,60.00193206295381,2026-05-05 11h17.40.349744 +0200,
T,3.wav,0,0,0,20,20,0,,,,,,,,,bloc_c.xlsx,None,1,None,1,,,,,,,,,,,,,,1,0,1,0,0,0,0,1,0,20,20,20,542.2443731000094,,,,,,,,,,,,,,,,,,,,,,,,,,,,,,,,,,,,,,,,,,,,,542.2330642000015,542.2443731000094,542.2443731000094,543.2270007000043,543.226952266665,543.7596500000072,544.7257907000021,None,1,None,1,,,,,,,,,,,,,,,,,,,,,,1 - DUAL,001,2026-05-05_11h17.28.796,untitled,,2025.1.1,60.00193206295381,2026-05-05 11h17.40.349744 +0200,
B,2.wav,0,1,0,21,21,0,,,,,,,,,bloc_c.xlsx,None,1,None,0,,,,,,,,,,,,,,1,0,1,0,0,0,0,1,0,21,21,21,544.7423540000018,,,,,,,,,,,,,,,,,,,,,,,,,,,,,,,,,,,,,,,,,,,,,544.7304057000001,544.7423540000018,544.7423540000018,545.7247502999962,545.7249985666751,546.2576820999966,547.223994,None,1,None,0,,,,,,,,,,,,,,,,,,,,,,1 - DUAL,001,2026-05-05_11h17.28.796,untitled,,2025.1.1,60.00193206295381,2026-05-05 11h17.40.349744 +0200,
L,4.wav,0,0,0,22,22,0,,,,,,,,,bloc_c.xlsx,None,1,None,1,,,,,,,,,,,,,,1,0,1,0,0,0,0,1,0,22,22,22,547.2403724000033,,,,,,,,,,,,,,,,,,,,,,,,,,,,,,,,,,,,,,,,,,,,,547.2302254000097,547.2403724000033,547.2403724000033,548.2227761999966,548.2225700666643,548.7557031000033,549.7216251000063,None,1,None,1,,,,,,,,,,,,,,,,,,,,,,1 - DUAL,001,2026-05-05_11h17.28.796,untitled,,2025.1.1,60.00193206295381,2026-05-05 11h17.40.349744 +0200,
F,3.wav,0,0,0,23,23,0,,,,,,,,,bloc_c.xlsx,None,1,d,0,1.9686864999966929,0.15944030000537168,,,,,,,,,,,,1,0,1,0,0,0,0,1,0,23,23,23,549.7382973000058,,,,,,,,,,,,,,,,,,,,,,,,,,,,,,,,,,,,,,,,,,,,,549.7265391999972,549.7382973000058,549.7382973000058,550.7209182000079,550.720685566663,551.2370212000096,552.2363576000062,None,1,d,0,1.9686864999966929,0.15944030000537168,,,552.2362357000093,,,,,,,,,,,,,,,,,1 - DUAL,001,2026-05-05_11h17.28.796,untitled,,2025.1.1,60.00193206295381,2026-05-05 11h17.40.349744 +0200,
T,4.wav,0,1,0,24,24,0,,,,,,,,,bloc_c.xlsx,None,1,None,0,,,,,,,,,,,,,,1,0,1,0,0,0,0,1,0,24,24,24,552.2528425000055,,,,,,,,,,,,,,,,,,,,,,,,,,,,,,,,,,,,,,,,,,,,,552.2422877000063,552.2528425000055,552.2528425000055,553.2354310000082,553.2352627666735,553.7682764000056,554.7341202000098,None,1,None,0,,,,,,,,,,,,,,,,,,,,,,1 - DUAL,001,2026-05-05_11h17.28.796,untitled,,2025.1.1,60.00193206295381,2026-05-05 11h17.40.349744 +0200,
F,6.wav,1,0,0,25,25,0,,,,,,,,,bloc_c.xlsx,None,0,None,1,,,,,,,,,,,,,,1,0,1,0,0,0,0,1,0,25,25,25,554.7505995999963,,,,,,,,,,,,,,,,,,,,,,,,,,,,,,,,,,,,,,,,,,,,,554.7421285000019,554.7505995999963,554.7505995999963,555.7333948000014,555.7333071666692,556.249796899996,557.2321824000101,None,0,None,1,,,,,,,,,,,,,,,,,,,,,,1 - DUAL,001,2026-05-05_11h17.28.796,untitled,,2025.1.1,60.00193206295381,2026-05-05 11h17.40.349744 +0200,
D,5.wav,0,0,0,26,26,0,,,,,,,,,bloc_c.xlsx,None,1,None,1,,,,,,,,,,,,,,1,0,1,0,0,0,0,1,0,26,26,26,557.2487626000075,,,,,,,,,,,,,,,,,,,,,,,,,,,,,,,,,,,,,,,,,,,,,557.239402200008,557.2487626000075,557.2487626000075,558.2311923000088,558.2313021666671,558.747435199999,559.7301889000082,None,1,None,1,,,,,,,,,,,,,,,,,,,,,,1 - DUAL,001,2026-05-05_11h17.28.796,untitled,,2025.1.1,60.00193206295381,2026-05-05 11h17.40.349744 +0200,
G,6.wav,0,1,0,27,27,0,,,,,,,,,bloc_c.xlsx,None,1,None,0,,,,,,,,,,,,,,1,0,1,0,0,0,0,1,0,27,27,27,559.7466458999988,,,,,,,,,,,,,,,,,,,,,,,,,,,,,,,,,,,,,,,,,,,,,559.7370949000033,559.7466458999988,559.7466458999988,560.7291955999972,560.7290788666762,561.2618987000023,562.2278881000093,None,1,None,0,,,,,,,,,,,,,,,,,,,,,,1 - DUAL,001,2026-05-05_11h17.28.796,untitled,,2025.1.1,60.00193206295381,2026-05-05 11h17.40.349744 +0200,
E,2.wav,0,0,0,28,28,0,,,,,,,,,bloc_c.xlsx,None,1,None,1,,,,,,,,,,,,,,1,0,1,0,0,0,0,1,0,28,28,28,562.2445682999969,,,,,,,,,,,,,,,,,,,,,,,,,,,,,,,,,,,,,,,,,,,,,562.2321186000045,562.2445682999969,562.2445682999969,563.2270764999994,563.2270668666645,563.7599721000006,564.7259395000001,None,1,None,1,,,,,,,,,,,,,,,,,,,,,,1 - DUAL,001,2026-05-05_11h17.28.796,untitled,,2025.1.1,60.00193206295381,2026-05-05 11h17.40.349744 +0200,
G,8.wav,1,0,0,29,29,0,,,,,,,,,bloc_c.xlsx,k,1,None,1,,,1.5349519000010332,0.12451799999689683,,,,,,,,,,1,0,1,0,0,0,0,1,0,29,29,29,564.7425700000022,,,,,,,,,,,,,,,,,,,,,,,,,,,,,,,,,,,,,,,,,,,,,564.7313957000006,564.7425700000022,564.7425700000022,565.7252236000058,565.7251500666646,566.2579458999971,567.2242089000065,k,1,None,1,,,1.5349519000010332,0.12451799999689683,,,,,,,,,,,,,,,,,,1 - DUAL,001,2026-05-05_11h17.28.796,untitled,,2025.1.1,60.00193206295381,2026-05-05 11h17.40.349744 +0200,
S,5.wav,0,0,0,30,30,0,,,,,,,,,bloc_c.xlsx,None,1,None,1,,,,,,,,,,,,,,1,0,1,0,0,0,0,1,0,30,30,30,567.240521700005,,,,,,,,,,,,,,,,,,,,,,,,,,,,,,,,,,,,,,,,,,,,,567.231162600001,567.240521700005,567.240521700005,568.2231504000083,568.223112566677,568.7392123000027,569.7219431999983,None,1,None,1,,,,,,,,,,,,,,,,,,,,,,1 - DUAL,001,2026-05-05_11h17.28.796,untitled,,2025.1.1,60.00193206295381,2026-05-05 11h17.40.349744 +0200,
N,1.wav,0,0,0,31,31,0,,,,,,,,,bloc_c.xlsx,None,1,None,1,,,,,,,,,,,,,,1,0,1,0,0,0,0,1,0,31,31,31,569.7384571000002,,,,,,,,,,,,,,,,,,,,,,,,,,,,,,,,,,,,,,,,,,,,,569.7248039999977,569.7384571000002,569.7384571000002,570.7209367000032,570.7208688666763,571.237111800001,572.2363917000039,None,1,None,1,,,,,572.2362206999969,,,,,,,,,,,,,,,,,1 - DUAL,001,2026-05-05_11h17.28.796,untitled,,2025.1.1,60.00193206295381,2026-05-05 11h17.40.349744 +0200,
V,2.wav,0,0,0,32,32,0,,,,,,,,,bloc_c.xlsx,None,1,None,1,,,,,,,,,,,,,,1,0,1,0,0,0,0,1,0,32,32,32,572.253131999998,,,,,,,,,,,,,,,,,,,,,,,,,,,,,,,,,,,,,,,,,,,,,572.2403183999995,572.253131999998,572.253131999998,573.2356512999977,573.2356062666697,573.768524900006,574.7344640000083,None,1,None,1,,,,,,,,,,,,,,,,,,,,,,1 - DUAL,001,2026-05-05_11h17.28.796,untitled,,2025.1.1,60.00193206295381,2026-05-05 11h17.40.349744 +0200,
X,1.wav,0,1,0,33,33,0,,,,,,,,,bloc_c.xlsx,None,1,None,0,,,,,,,,,,,,,,1,0,1,0,0,0,0,1,0,33,33,33,574.7508685000066,,,,,,,,,,,,,,,,,,,,,,,,,,,,,,,,,,,,,,,,,,,,,574.737896000006,574.7508685000066,574.7508685000066,575.733610299998,575.7335257666748,576.2497876999987,577.2323566999985,None,1,None,0,,,,,,,,,,,,,,,,,,,,,,1 - DUAL,001,2026-05-05_11h17.28.796,untitled,,2025.1.1,60.00193206295381,2026-05-05 11h17.40.349744 +0200,
A,4.wav,0,0,0,34,34,0,,,,,,,,,bloc_c.xlsx,None,1,None,1,,,,,,,,,,,,,,1,0,1,0,0,0,0,1,0,34,34,34,577.2487547000055,,,,,,,,,,,,,,,,,,,,,,,,,,,,,,,,,,,,,,,,,,,,,577.2378435999999,577.2487547000055,577.2487547000055,578.2314209000033,578.2315570666726,578.7643951000064,579.7303333000018,None,1,None,1,,,,,,,,,,,,,,,,,,,,,,1 - DUAL,001,2026-05-05_11h17.28.796,untitled,,2025.1.1,60.00193206295381,2026-05-05 11h17.40.349744 +0200,
R,2.wav,0,0,0,35,35,0,,,,,,,,,bloc_c.xlsx,None,1,None,1,,,,,,,,,,,,,,1,0,1,0,0,0,0,1,0,35,35,35,579.7467583999969,,,,,,,,,,,,,,,,,,,,,,,,,,,,,,,,,,,,,,,,,,,,,579.7344580000063,579.7467583999969,579.7467583999969,580.7294110000075,580.7293770666768,581.2455864000076,582.2282400999975,None,1,None,1,,,,,,,,,,,,,,,,,,,,,,1 - DUAL,001,2026-05-05_11h17.28.796,untitled,,2025.1.1,60.00193206295381,2026-05-05 11h17.40.349744 +0200,
A,6.wav,1,0,0,36,36,0,,,,,,,,,bloc_c.xlsx,None,0,None,1,,,,,,,,,,,,,,1,0,1,0,0,0,0,1,0,36,36,36,582.2448369000049,,,,,,,,,,,,,,,,,,,,,,,,,,,,,,,,,,,,,,,,,,,,,582.2370380000066,582.2448369000049,582.2448369000049,583.227266700007,583.2273969666751,583.7602979000076,584.7265310000075,None,0,None,1,,,,,,,,,,,,,,,,,,,,,,1 - DUAL,001,2026-05-05_11h17.28.796,untitled,,2025.1.1,60.00193206295381,2026-05-05 11h17.40.349744 +0200,
U,8.wav,0,0,0,37,37,0,,,,,,,,,bloc_c.xlsx,None,1,None,1,,,,,,,,,,,,,,1,0,1,0,0,0,0,1,0,37,37,37,584.742703099997,,,,,,,,,,,,,,,,,,,,,,,,,,,,,,,,,,,,,,,,,,,,,584.7331743999966,584.742703099997,584.742703099997,585.7251980000001,585.725260966665,586.2581563999993,587.224255100009,None,1,None,1,,,,,,,,,,,,,,,,,,,,,,1 - DUAL,001,2026-05-05_11h17.28.796,untitled,,2025.1.1,60.00193206295381,2026-05-05 11h17.40.349744 +0200,
N,1.wav,0,0,0,38,38,0,,,,,,,,,bloc_c.xlsx,None,1,d,0,2.153762000001734,0.20518829999491572,,,,,,,,,,,,1,0,1,0,0,0,0,1,0,38,38,38,587.2406692000077,,,,,,,,,,,,,,,,,,,,,,,,,,,,,,,,,,,,,,,,,,,,,587.2270393000072,587.2406692000077,587.2406692000077,588.2231165999983,588.2231518666706,588.7229166000034,589.7222035000013,None,1,d,0,2.153762000001734,0.20518829999491572,,,,,,,,,,,,,,,,,,,,1 - DUAL,001,2026-05-05_11h17.28.796,untitled,,2025.1.1,60.00193206295381,2026-05-05 11h17.40.349744 +0200,
