thisN,thisTrialN,thisRepN,target,thisLetter,key_resp_2.keys,key_resp_2.rt,key_resp_2.duration,key_resp.keys,key_resp.corr,key_resp.rt,key_resp.duration,RSME_ticks.response,RSME_ticks.rt,button_next_11.numClicks,button_next_11.timesOn,button_next_11.timesOff,Blocks_X6.thisRepN,Blocks_X6.thisTrialN,Blocks_X6.thisN,Blocks_X6.thisIndex,Sequence_of_targets_X4.thisRepN,Sequence_of_targets_X4.thisTrialN,Sequence_of_targets_X4.thisN,Sequence_of_targets_X4.thisIndex,trial_X50.thisRepN,trial_X50.thisTrialN,trial_X50.thisN,trial_X50.thisIndex,thisRow.t,notes,INIT_LSL.started,text_init.started,text_init.stopped,INIT_LSL.stopped,INTRO_PRE_BLOCK.started,text.started,key_resp_2.started,text_6.started,text_7.started,INTRO_PRE_BLOCK.stopped,Sequence_of_targets_X4.key_resp_2.keys,Sequence_of_targets_X4.key_resp_2.rt,Sequence_of_targets_X4.key_resp_2.duration,One_Trial.started,Letter.started,key_resp.started,Letter.stopped,One_Trial.stopped,trial_X50.key_resp.keys,trial_X50.key_resp.corr,key_resp.stopped,trial_X50.key_resp.rt,trial_X50.key_resp.duration,KSS_POST_BLOCK.started,RSME_labels.started,RSME_ticks.started,RSME_text.started,answer1_text.started,button_next_11.started,KSS_POST_BLOCK.stopped,Blocks_X6.RSME_ticks.response,Blocks_X6.RSME_ticks.rt,Blocks_X6.button_next_11.numClicks,Blocks_X6.button_next_11.timesOn,Blocks_X6.button_next_11.timesOff,participant,session,date,expName,expVersion,psychopyVersion,frameRate,expStart,
,,,,,,,,,,,,,,,,,,,,,,,,,,,,,,,0.006982699997024611,0.01245139999082312,1.0122425000008661,0.9959275999863166,,,,,,,,,,,,,,,,,,,,,,,,,,,,,,,,4,001,2026-04-21_13h29.04.554,0back,,2025.1.1,59.56291541082484,2026-04-21 13h29.11.100489 +0200,
0,0,0,M,R,return,4.60281290000421,None,None,0,,,,,,,,0,0,0,0,0,0,0,0,0,0,0,12,5.645653399988078,,,,,,1.0066441999806557,1.0122425000008661,1.0122425000008661,1.0122425000008661,1.0122425000008661,5.629412899987074,return,4.60281290000421,None,5.637847399979364,5.645653399988078,5.645653399988078,6.145593399996869,6.629712099995231,None,0,,,,,,,,,,,,,,,,4,001,2026-04-21_13h29.04.554,0back,,2025.1.1,59.56291541082484,2026-04-21 13h29.11.100489 +0200,
1,1,0,M,D,return,4.60281290000421,None,None,0,,,,,,,,0,0,0,0,0,0,0,0,0,1,1,48,6.645772199990461,,,,,,,,,,,,,,,6.634105799981626,6.645772199990461,6.645772199990461,7.14562989998376,7.629208099999232,None,0,7.645900199975586,,,,,,,,,,,,,,,4,001,2026-04-21_13h29.04.554,0back,,2025.1.1,59.56291541082484,2026-04-21 13h29.11.100489 +0200,
2,2,0,M,R,return,4.60281290000421,None,None,0,,,,,,,,0,0,0,0,0,0,0,0,0,2,2,10,7.645900199975586,,,,,,,,,,,,,,,7.6309609999880195,7.645900199975586,7.645900199975586,8.14557049999712,8.629075699980604,None,0,8.64658019997296,,,,,,,,,,,,,,,4,001,2026-04-21_13h29.04.554,0back,,2025.1.1,59.56291541082484,2026-04-21 13h29.11.100489 +0200,
3,3,0,M,N,return,4.60281290000421,None,None,0,,,,,,,,0,0,0,0,0,0,0,0,0,3,3,21,8.64658019997296,,,,,,,,,,,,,,,8.632438199972967,8.64658019997296,8.64658019997296,9.162405799987027,9.62954379999428,None,0,9.646046199981356,,,,,,,,,,,,,,,4,001,2026-04-21_13h29.04.554,0back,,2025.1.1,59.56291541082484,2026-04-21 13h29.11.100489 +0200,
4,4,0,M,A,return,4.60281290000421,None,None,0,,,,,,,,0,0,0,0,0,0,0,0,0,4,4,32,9.646046199981356,,,,,,,,,,,,,,,9.630949099984718,9.646046199981356,9.646046199981356,10.145813399984036,10.629363799991552,None,0,10.646252199978335,,,,,,,,,,,,,,,4,001,2026-04-21_13h29.04.554,0back,,2025.1.1,59.56291541082484,2026-04-21 13h29.11.100489 +0200,
5,5,0,M,N,return,4.60281290000421,None,None,0,,,,,,,,0,0,0,0,0,0,0,0,0,5,5,19,10.646252199978335,,,,,,,,,,,,,,,10.630602999997791,10.646252199978335,10.646252199978335,11.146057799982373,11.629210599989165,None,0,11.645683599985205,,,,,,,,,,,,,,,4,001,2026-04-21_13h29.04.554,0back,,2025.1.1,59.56291541082484,2026-04-21 13h29.11.100489 +0200,
6,6,0,M,Z,return,4.60281290000421,None,None,0,,,,,,,,0,0,0,0,0,0,0,0,0,6,6,39,11.645683599985205,,,,,,,,,,,,,,,11.63264349999372,11.645683599985205,11.645683599985205,12.145605099998647,12.629148899985012,None,0,12.64580759999808,,,,,,,,,,,,,,,4,001,2026-04-21_13h29.04.554,0back,,2025.1.1,59.56291541082484,2026-04-21 13h29.11.100489 +0200,
7,7,0,M,R,return,4.60281290000421,None,None,0,,,,,,,,0,0,0,0,0,0,0,0,0,7,7,14,12.64580759999808,,,,,,,,,,,,,,,12.630427600000985,12.64580759999808,12.64580759999808,13.145584499987308,13.629212499974528,None,0,13.645675699983258,,,,,,,,,,,,,,,4,001,2026-04-21_13h29.04.554,0back,,2025.1.1,59.56291541082484,2026-04-21 13h29.11.100489 +0200,
8,8,0,M,R,return,4.60281290000421,None,None,0,,,,,,,,0,0,0,0,0,0,0,0,0,8,8,11,13.645675699983258,,,,,,,,,,,,,,,13.629372899973532,13.645675699983258,13.645675699983258,14.145574299996952,14.628884299978381,None,0,14.645544099999825,,,,,,,,,,,,,,,4,001,2026-04-21_13h29.04.554,0back,,2025.1.1,59.56291541082484,2026-04-21 13h29.11.100489 +0200,
9,9,0,M,M,return,4.60281290000421,None,space,1,0.4170808999915607,0.14307170000392944,,,,,,0,0,0,0,0,0,0,0,0,9,9,7,14.645544099999825,,,,,,,,,,,,,,,14.630807299981825,14.645544099999825,14.645544099999825,15.145717699982924,15.628996499988716,space,1,15.646529799996642,0.4170808999915607,0.14307170000392944,,,,,,,,,,,,,4,001,2026-04-21_13h29.04.554,0back,,2025.1.1,59.56291541082484,2026-04-21 13h29.11.100489 +0200,
10,10,0,M,R,return,4.60281290000421,None,None,0,,,,,,,,0,0,0,0,0,0,0,0,0,10,10,15,15.646529799996642,,,,,,,,,,,,,,,15.63043399999151,15.646529799996642,15.646529799996642,16.16220159997465,16.645841299992753,None,0,,,,,,,,,,,,,,,,4,001,2026-04-21_13h29.04.554,0back,,2025.1.1,59.56291541082484,2026-04-21 13h29.11.100489 +0200,
11,11,0,M,A,return,4.60281290000421,None,None,0,,,,,,,,0,0,0,0,0,0,0,0,0,11,11,30,16.662333199987188,,,,,,,,,,,,,,,16.647265999985393,16.662333199987188,16.662333199987188,17.162308499973733,17.64597579999827,None,0,,,,,,,,,,,,,,,,4,001,2026-04-21_13h29.04.554,0back,,2025.1.1,59.56291541082484,2026-04-21 13h29.11.100489 +0200,
12,12,0,M,A,return,4.60281290000421,None,None,0,,,,,,,,0,0,0,0,0,0,0,0,0,12,12,31,17.662234899995383,,,,,,,,,,,,,,,17.646165599988308,17.662234899995383,17.662234899995383,18.162347899982706,18.64589229997364,None,0,,,,,,,,,,,,,,,,4,001,2026-04-21_13h29.04.554,0back,,2025.1.1,59.56291541082484,2026-04-21 13h29.11.100489 +0200,
13,13,0,M,A,return,4.60281290000421,None,None,0,,,,,,,,0,0,0,0,0,0,0,0,0,13,13,35,18.66219469998032,,,,,,,,,,,,,,,18.646166799997445,18.66219469998032,18.66219469998032,19.16277419999824,19.646230499987723,None,0,,,,,,,,,,,,,,,,4,001,2026-04-21_13h29.04.554,0back,,2025.1.1,59.56291541082484,2026-04-21 13h29.11.100489 +0200,
14,14,0,M,N,return,4.60281290000421,None,None,0,,,,,,,,0,0,0,0,0,0,0,0,0,14,14,23,19.662201999977697,,,,,,,,,,,,,,,19.647787800000515,19.662201999977697,19.662201999977697,20.162265999999363,20.62951929998235,None,0,,,,,,,,,,,,,,,,4,001,2026-04-21_13h29.04.554,0back,,2025.1.1,59.56291541082484,2026-04-21 13h29.11.100489 +0200,
15,15,0,M,A,return,4.60281290000421,None,None,0,,,,,,,,0,0,0,0,0,0,0,0,0,15,15,37,20.645942899980582,,,,,,,,,,,,,,,20.63117229999625,20.645942899980582,20.645942899980582,21.14571669997531,21.62922729999991,None,0,21.646379599987995,,,,,,,,,,,,,,,4,001,2026-04-21_13h29.04.554,0back,,2025.1.1,59.56291541082484,2026-04-21 13h29.11.100489 +0200,
16,16,0,M,P,return,4.60281290000421,None,None,0,,,,,,,,0,0,0,0,0,0,0,0,0,16,16,46,21.646379599987995,,,,,,,,,,,,,,,21.632372699998086,21.646379599987995,21.646379599987995,22.145565099985106,22.645719699998153,None,0,,,,,,,,,,,,,,,,4,001,2026-04-21_13h29.04.554,0back,,2025.1.1,59.56291541082484,2026-04-21 13h29.11.100489 +0200,
17,17,0,M,R,return,4.60281290000421,None,None,0,,,,,,,,0,0,0,0,0,0,0,0,0,17,17,16,22.662369199999375,,,,,,,,,,,,,,,22.64760519997799,22.662369199999375,22.662369199999375,23.16212419999647,23.645710099983262,None,0,,,,,,,,,,,,,,,,4,001,2026-04-21_13h29.04.554,0back,,2025.1.1,59.56291541082484,2026-04-21 13h29.11.100489 +0200,
18,18,0,M,N,return,4.60281290000421,None,None,0,,,,,,,,0,0,0,0,0,0,0,0,0,18,18,26,23.66225929997745,,,,,,,,,,,,,,,23.647332099993946,23.66225929997745,23.66225929997745,24.162230099987937,24.646910499985097,None,0,,,,,,,,,,,,,,,,4,001,2026-04-21_13h29.04.554,0back,,2025.1.1,59.56291541082484,2026-04-21 13h29.11.100489 +0200,
19,19,0,M,C,return,4.60281290000421,None,None,0,,,,,,,,0,0,0,0,0,0,0,0,0,19,19,49,24.662373999977717,,,,,,,,,,,,,,,24.64999700000044,24.662373999977717,24.662373999977717,25.1624319999828,25.646000799984904,None,0,,,,,,,,,,,,,,,,4,001,2026-04-21_13h29.04.554,0back,,2025.1.1,59.56291541082484,2026-04-21 13h29.11.100489 +0200,
20,20,0,M,E,return,4.60281290000421,None,None,0,,,,,,,,0,0,0,0,0,0,0,0,0,20,20,40,25.66252089999034,,,,,,,,,,,,,,,25.647460399981355,25.66252089999034,25.66252089999034,26.162257799995132,26.645702199981315,None,0,,,,,,,,,,,,,,,,4,001,2026-04-21_13h29.04.554,0back,,2025.1.1,59.56291541082484,2026-04-21 13h29.11.100489 +0200,
21,21,0,M,M,return,4.60281290000421,None,space,1,0.4398143999860622,0.15139620000263676,,,,,,0,0,0,0,0,0,0,0,0,21,21,6,26.663054199976614,,,,,,,,,,,,,,,26.648315899976296,26.663054199976614,26.663054199976614,27.162253099988448,27.646022999979323,space,1,,0.4398143999860622,0.15139620000263676,,,,,,,,,,,,,4,001,2026-04-21_13h29.04.554,0back,,2025.1.1,59.56291541082484,2026-04-21 13h29.11.100489 +0200,
22,22,0,M,N,return,4.60281290000421,None,None,0,,,,,,,,0,0,0,0,0,0,0,0,0,22,22,24,27.66221179999411,,,,,,,,,,,,,,,27.647579099982977,27.66221179999411,27.66221179999411,28.16221609999775,28.646575399994617,None,0,,,,,,,,,,,,,,,,4,001,2026-04-21_13h29.04.554,0back,,2025.1.1,59.56291541082484,2026-04-21 13h29.11.100489 +0200,
23,23,0,M,M,return,4.60281290000421,None,space,1,0.8148768999963067,0.12044279999099672,,,,,,0,0,0,0,0,0,0,0,0,23,23,5,28.662386999989394,,,,,,,,,,,,,,,28.64972069999203,28.662386999989394,28.662386999989394,29.16219479998108,29.646874699974433,space,1,,0.8148768999963067,0.12044279999099672,,,,,,,,,,,,,4,001,2026-04-21_13h29.04.554,0back,,2025.1.1,59.56291541082484,2026-04-21 13h29.11.100489 +0200,
24,24,0,M,U,return,4.60281290000421,None,None,0,,,,,,,,0,0,0,0,0,0,0,0,0,24,24,43,29.662608499987982,,,,,,,,,,,,,,,29.650247399986256,29.662608499987982,29.662608499987982,30.162529099994572,30.646802999981446,None,0,,,,,,,,,,,,,,,,4,001,2026-04-21_13h29.04.554,0back,,2025.1.1,59.56291541082484,2026-04-21 13h29.11.100489 +0200,
25,25,0,M,R,return,4.60281290000421,None,None,0,,,,,,,,0,0,0,0,0,0,0,0,0,25,25,13,30.662349899997935,,,,,,,,,,,,,,,30.64884959999472,30.662349899997935,30.662349899997935,31.162564199999906,31.645837499992922,None,0,,,,,,,,,,,,,,,,4,001,2026-04-21_13h29.04.554,0back,,2025.1.1,59.56291541082484,2026-04-21 13h29.11.100489 +0200,
26,26,0,M,Q,return,4.60281290000421,None,None,0,,,,,,,,0,0,0,0,0,0,0,0,0,26,26,47,31.6621887999936,,,,,,,,,,,,,,,31.648709199973382,31.6621887999936,31.6621887999936,32.16228150000097,32.62992239999585,None,0,,,,,,,,,,,,,,,,4,001,2026-04-21_13h29.04.554,0back,,2025.1.1,59.56291541082484,2026-04-21 13h29.11.100489 +0200,
27,27,0,M,A,return,4.60281290000421,None,None,0,,,,,,,,0,0,0,0,0,0,0,0,0,27,27,33,32.646188399987295,,,,,,,,,,,,,,,32.63129759998992,32.646188399987295,32.646188399987295,33.145748899987666,33.62949649998336,None,0,,,,,,,,,,,,,,,,4,001,2026-04-21_13h29.04.554,0back,,2025.1.1,59.56291541082484,2026-04-21 13h29.11.100489 +0200,
28,28,0,M,I,return,4.60281290000421,None,None,0,,,,,,,,0,0,0,0,0,0,0,0,0,28,28,44,33.6459619999805,,,,,,,,,,,,,,,33.630775499972515,33.6459619999805,33.6459619999805,34.145535299991025,34.629430799977854,None,0,34.64615539999795,,,,,,,,,,,,,,,4,001,2026-04-21_13h29.04.554,0back,,2025.1.1,59.56291541082484,2026-04-21 13h29.11.100489 +0200,
29,29,0,M,Y,return,4.60281290000421,None,None,0,,,,,,,,0,0,0,0,0,0,0,0,0,29,29,42,34.64615539999795,,,,,,,,,,,,,,,34.632494199991925,34.64615539999795,34.64615539999795,35.14581049999106,35.629701199999545,None,0,,,,,,,,,,,,,,,,4,001,2026-04-21_13h29.04.554,0back,,2025.1.1,59.56291541082484,2026-04-21 13h29.11.100489 +0200,
30,30,0,M,R,return,4.60281290000421,None,None,0,,,,,,,,0,0,0,0,0,0,0,0,0,30,30,18,35.6457368999836,,,,,,,,,,,,,,,35.63112359997467,35.6457368999836,35.6457368999836,36.145849499996984,36.6290086999943,None,0,36.646312999975635,,,,,,,,,,,,,,,4,001,2026-04-21_13h29.04.554,0back,,2025.1.1,59.56291541082484,2026-04-21 13h29.11.100489 +0200,
31,31,0,M,M,return,4.60281290000421,None,space,1,0.49501579999923706,0.14424829999916255,,,,,,0,0,0,0,0,0,0,0,0,31,31,8,36.646312999975635,,,,,,,,,,,,,,,36.63150439999299,36.646312999975635,36.646312999975635,37.1459707999893,37.62948599999072,space,1,,0.49501579999923706,0.14424829999916255,,,,,,,,,,,,,4,001,2026-04-21_13h29.04.554,0back,,2025.1.1,59.56291541082484,2026-04-21 13h29.11.100489 +0200,
32,32,0,M,M,return,4.60281290000421,None,space,1,0.823970500001451,0.11964160000206903,,,,,,0,0,0,0,0,0,0,0,0,32,32,1,37.64581799998996,,,,,,,,,,,,,,,37.63055029997486,37.64581799998996,37.64581799998996,38.14572390000103,38.62940649999655,space,1,38.64592199999606,0.823970500001451,0.11964160000206903,,,,,,,,,,,,,4,001,2026-04-21_13h29.04.554,0back,,2025.1.1,59.56291541082484,2026-04-21 13h29.11.100489 +0200,
33,33,0,M,M,return,4.60281290000421,None,space,1,0.5593885999987833,0.11954600000171922,,,,,,0,0,0,0,0,0,0,0,0,33,33,2,38.64592199999606,,,,,,,,,,,,,,,38.63028889999259,38.64592199999606,38.64592199999606,39.14568549999967,39.62916519999271,space,1,39.64565880000009,0.5593885999987833,0.11954600000171922,,,,,,,,,,,,,4,001,2026-04-21_13h29.04.554,0back,,2025.1.1,59.56291541082484,2026-04-21 13h29.11.100489 +0200,
34,34,0,M,A,return,4.60281290000421,None,None,0,,,,,,,,0,0,0,0,0,0,0,0,0,34,34,38,39.64565880000009,,,,,,,,,,,,,,,39.63061219998053,39.64565880000009,39.64565880000009,40.14559429997462,40.62896329999785,None,0,40.64599059999455,,,,,,,,,,,,,,,4,001,2026-04-21_13h29.04.554,0back,,2025.1.1,59.56291541082484,2026-04-21 13h29.11.100489 +0200,
35,35,0,M,T,return,4.60281290000421,None,None,0,,,,,,,,0,0,0,0,0,0,0,0,0,35,35,41,40.64599059999455,,,,,,,,,,,,,,,40.631742699973984,40.64599059999455,40.64599059999455,41.14558439998655,41.62894589998177,None,0,41.64596789999632,,,,,,,,,,,,,,,4,001,2026-04-21_13h29.04.554,0back,,2025.1.1,59.56291541082484,2026-04-21 13h29.11.100489 +0200,
36,36,0,M,N,return,4.60281290000421,None,None,0,,,,,,,,0,0,0,0,0,0,0,0,0,36,36,22,41.64596789999632,,,,,,,,,,,,,,,41.63029760000063,41.64596789999632,41.64596789999632,42.14564469998004,42.62911999999778,None,0,42.64562379999552,,,,,,,,,,,,,,,4,001,2026-04-21_13h29.04.554,0back,,2025.1.1,59.56291541082484,2026-04-21 13h29.11.100489 +0200,
37,37,0,M,A,return,4.60281290000421,None,None,0,,,,,,,,0,0,0,0,0,0,0,0,0,37,37,36,42.64562379999552,,,,,,,,,,,,,,,42.6308334999776,42.64562379999552,42.64562379999552,43.145640699978685,43.629278099979274,None,0,43.64563339998131,,,,,,,,,,,,,,,4,001,2026-04-21_13h29.04.554,0back,,2025.1.1,59.56291541082484,2026-04-21 13h29.11.100489 +0200,
38,38,0,M,O,return,4.60281290000421,None,None,0,,,,,,,,0,0,0,0,0,0,0,0,0,38,38,45,43.64563339998131,,,,,,,,,,,,,,,43.63252079999074,43.64563339998131,43.64563339998131,44.14560199997504,44.62906489998568,None,0,44.64581889999681,,,,,,,,,,,,,,,4,001,2026-04-21_13h29.04.554,0back,,2025.1.1,59.56291541082484,2026-04-21 13h29.11.100489 +0200,
39,39,0,M,N,return,4.60281290000421,None,None,0,,,,,,,,0,0,0,0,0,0,0,0,0,39,39,20,44.64581889999681,,,,,,,,,,,,,,,44.6304246999789,44.64581889999681,44.64581889999681,45.14556259999517,45.62884019999183,None,0,45.64558459998807,,,,,,,,,,,,,,,4,001,2026-04-21_13h29.04.554,0back,,2025.1.1,59.56291541082484,2026-04-21 13h29.11.100489 +0200,
40,40,0,M,M,return,4.60281290000421,None,space,1,0.48820510000223294,0.16739899999811314,,,,,,0,0,0,0,0,0,0,0,0,40,40,4,45.64558459998807,,,,,,,,,,,,,,,45.63109599999734,45.64558459998807,45.64558459998807,46.14554919998045,46.62918569997419,space,1,46.64570489997277,0.48820510000223294,0.16739899999811314,,,,,,,,,,,,,4,001,2026-04-21_13h29.04.554,0back,,2025.1.1,59.56291541082484,2026-04-21 13h29.11.100489 +0200,
41,41,0,M,A,return,4.60281290000421,None,None,0,,,,,,,,0,0,0,0,0,0,0,0,0,41,41,29,46.64570489997277,,,,,,,,,,,,,,,46.63075620000018,46.64570489997277,46.64570489997277,47.14553999999771,47.62890789998346,None,0,47.645623499993235,,,,,,,,,,,,,,,4,001,2026-04-21_13h29.04.554,0back,,2025.1.1,59.56291541082484,2026-04-21 13h29.11.100489 +0200,
42,42,0,M,M,return,4.60281290000421,None,space,1,0.6394987999810837,0.12014939999789931,,,,,,0,0,0,0,0,0,0,0,0,42,42,3,47.645623499993235,,,,,,,,,,,,,,,47.63087289998657,47.645623499993235,47.645623499993235,48.145610899984604,48.62881009999546,space,1,48.645707999996375,0.6394987999810837,0.12014939999789931,,,,,,,,,,,,,4,001,2026-04-21_13h29.04.554,0back,,2025.1.1,59.56291541082484,2026-04-21 13h29.11.100489 +0200,
43,43,0,M,N,return,4.60281290000421,None,None,0,,,,,,,,0,0,0,0,0,0,0,0,0,43,43,25,48.645707999996375,,,,,,,,,,,,,,,48.6301188999787,48.645707999996375,48.645707999996375,49.1456698999973,49.62897130000056,None,0,49.64583299998776,,,,,,,,,,,,,,,4,001,2026-04-21_13h29.04.554,0back,,2025.1.1,59.56291541082484,2026-04-21 13h29.11.100489 +0200,
44,44,0,M,A,return,4.60281290000421,None,None,0,,,,,,,,0,0,0,0,0,0,0,0,0,44,44,34,49.64583299998776,,,,,,,,,,,,,,,49.63040729999193,49.64583299998776,49.64583299998776,50.145656199980294,50.628891999978805,None,0,50.64614409999922,,,,,,,,,,,,,,,4,001,2026-04-21_13h29.04.554,0back,,2025.1.1,59.56291541082484,2026-04-21 13h29.11.100489 +0200,
45,45,0,M,N,return,4.60281290000421,None,None,0,,,,,,,,0,0,0,0,0,0,0,0,0,45,45,28,50.64614409999922,,,,,,,,,,,,,,,50.63019519997761,50.64614409999922,50.64614409999922,51.14561309997225,51.628937999979826,None,0,51.64598659999319,,,,,,,,,,,,,,,4,001,2026-04-21_13h29.04.554,0back,,2025.1.1,59.56291541082484,2026-04-21 13h29.11.100489 +0200,
46,46,0,M,N,return,4.60281290000421,None,None,0,,,,,,,,0,0,0,0,0,0,0,0,0,46,46,27,51.64598659999319,,,,,,,,,,,,,,,51.629068399983225,51.64598659999319,51.64598659999319,52.14559559998452,52.6290844999894,None,0,52.645684299990535,,,,,,,,,,,,,,,4,001,2026-04-21_13h29.04.554,0back,,2025.1.1,59.56291541082484,2026-04-21 13h29.11.100489 +0200,
47,47,0,M,R,return,4.60281290000421,None,None,0,,,,,,,,0,0,0,0,0,0,0,0,0,47,47,17,52.645684299990535,,,,,,,,,,,,,,,52.630486299982294,52.645684299990535,52.645684299990535,53.14556609999272,53.62905689998297,None,0,53.64585679999436,,,,,,,,,,,,,,,4,001,2026-04-21_13h29.04.554,0back,,2025.1.1,59.56291541082484,2026-04-21 13h29.11.100489 +0200,
48,48,0,M,M,return,4.60281290000421,None,space,1,0.4715524000057485,0.1281228000007104,,,,,,0,0,0,0,0,0,0,0,0,48,48,0,53.64585679999436,,,,,,,,,,,,,,,53.63116049999371,53.64585679999436,53.64585679999436,54.14547599997604,54.62911689997418,space,1,54.64563409998664,0.4715524000057485,0.1281228000007104,,,,,,,,,,,,,4,001,2026-04-21_13h29.04.554,0back,,2025.1.1,59.56291541082484,2026-04-21 13h29.11.100489 +0200,
49,49,0,M,R,return,4.60281290000421,None,None,0,,,,,,,,0,0,0,0,0,0,0,0,0,49,49,9,54.64563409998664,,,,,,,,,,,,,,,54.63087299998733,54.64563409998664,54.64563409998664,55.14555749998544,55.628871699998854,None,0,55.64564999999129,,,,,,,,,,,,,,,4,001,2026-04-21_13h29.04.554,0back,,2025.1.1,59.56291541082484,2026-04-21 13h29.11.100489 +0200,
0,0,0,M,,return,4.60281290000421,None,,,,,,,,,,0,0,0,0,0,0,0,0,,,,,,,,,,,,,,,,,,,,,,,,,,,,,,,,,,,,,,,,,,4,001,2026-04-21_13h29.04.554,0back,,2025.1.1,59.56291541082484,2026-04-21 13h29.11.100489 +0200,
0,0,0,N,C,return,2.0882558999874163,None,None,0,,,,,,,,0,0,0,0,0,1,1,3,0,0,0,49,57.762318699999014,,,,,,55.634835899982136,55.64564999999129,55.64564999999129,55.64564999999129,55.64564999999129,57.745860600000015,return,2.0882558999874163,None,57.751675799983786,57.762318699999014,57.762318699999014,58.26220459997421,58.74591979998513,None,0,58.7622524999897,,,,,,,,,,,,,,,4,001,2026-04-21_13h29.04.554,0back,,2025.1.1,59.56291541082484,2026-04-21 13h29.11.100489 +0200,
1,1,0,N,R,return,2.0882558999874163,None,None,0,,,,,,,,0,0,0,0,0,1,1,3,0,1,1,15,58.7622524999897,,,,,,,,,,,,,,,58.74717099999543,58.7622524999897,58.7622524999897,59.26226209997549,59.745732599985786,None,0,59.76228469997295,,,,,,,,,,,,,,,4,001,2026-04-21_13h29.04.554,0back,,2025.1.1,59.56291541082484,2026-04-21 13h29.11.100489 +0200,
2,2,0,N,P,return,2.0882558999874163,None,None,0,,,,,,,,0,0,0,0,0,1,1,3,0,2,2,46,59.76228469997295,,,,,,,,,,,,,,,59.746954099973664,59.76228469997295,59.76228469997295,60.262228499981575,60.745909699995536,None,0,60.76223649998428,,,,,,,,,,,,,,,4,001,2026-04-21_13h29.04.554,0back,,2025.1.1,59.56291541082484,2026-04-21 13h29.11.100489 +0200,
3,3,0,N,A,return,2.0882558999874163,None,None,0,,,,,,,,0,0,0,0,0,1,1,3,0,3,3,35,60.76223649998428,,,,,,,,,,,,,,,60.74746719998075,60.76223649998428,60.76223649998428,61.262338000000454,61.745914299972355,None,0,61.76232459998573,,,,,,,,,,,,,,,4,001,2026-04-21_13h29.04.554,0back,,2025.1.1,59.56291541082484,2026-04-21 13h29.11.100489 +0200,
4,4,0,N,M,return,2.0882558999874163,None,None,0,,,,,,,,0,0,0,0,0,1,1,3,0,4,4,6,61.76232459998573,,,,,,,,,,,,,,,61.74742609998793,61.76232459998573,61.76232459998573,62.262255799985724,62.74583399997209,None,0,62.76221319998149,,,,,,,,,,,,,,,4,001,2026-04-21_13h29.04.554,0back,,2025.1.1,59.56291541082484,2026-04-21 13h29.11.100489 +0200,
5,5,0,N,R,return,2.0882558999874163,None,None,0,,,,,,,,0,0,0,0,0,1,1,3,0,5,5,17,62.76221319998149,,,,,,,,,,,,,,,62.74715669997386,62.76221319998149,62.76221319998149,63.26217709999764,63.74590839998564,None,0,63.76310779998312,,,,,,,,,,,,,,,4,001,2026-04-21_13h29.04.554,0back,,2025.1.1,59.56291541082484,2026-04-21 13h29.11.100489 +0200,
6,6,0,N,N,return,2.0882558999874163,None,space,1,0.5384237999969628,0.13537249999353662,,,,,,0,0,0,0,0,1,1,3,0,6,6,24,63.76310779998312,,,,,,,,,,,,,,,63.74774299998535,63.76310779998312,63.76310779998312,64.26214889998664,64.74590599999647,space,1,64.76223329998902,0.5384237999969628,0.13537249999353662,,,,,,,,,,,,,4,001,2026-04-21_13h29.04.554,0back,,2025.1.1,59.56291541082484,2026-04-21 13h29.11.100489 +0200,
7,7,0,N,M,return,2.0882558999874163,None,None,0,,,,,,,,0,0,0,0,0,1,1,3,0,7,7,3,64.76223329998902,,,,,,,,,,,,,,,64.74709559997427,64.76223329998902,64.76223329998902,65.26219599999604,65.7458463999792,None,0,65.76229159999639,,,,,,,,,,,,,,,4,001,2026-04-21_13h29.04.554,0back,,2025.1.1,59.56291541082484,2026-04-21 13h29.11.100489 +0200,
8,8,0,N,M,return,2.0882558999874163,None,None,0,,,,,,,,0,0,0,0,0,1,1,3,0,8,8,1,65.76229159999639,,,,,,,,,,,,,,,65.7460023999738,65.76229159999639,65.76229159999639,66.26221899999655,66.74584889999824,None,0,66.7623158999777,,,,,,,,,,,,,,,4,001,2026-04-21_13h29.04.554,0back,,2025.1.1,59.56291541082484,2026-04-21 13h29.11.100489 +0200,
9,9,0,N,M,return,2.0882558999874163,None,None,0,,,,,,,,0,0,0,0,0,1,1,3,0,9,9,0,66.7623158999777,,,,,,,,,,,,,,,66.74598209999385,66.7623158999777,66.7623158999777,67.26291719998699,67.74603949999437,None,0,,,,,,,,,,,,,,,,4,001,2026-04-21_13h29.04.554,0back,,2025.1.1,59.56291541082484,2026-04-21 13h29.11.100489 +0200,
10,10,0,N,R,return,2.0882558999874163,None,None,0,,,,,,,,0,0,0,0,0,1,1,3,0,10,10,13,67.76229819998844,,,,,,,,,,,,,,,67.74768139998196,67.76229819998844,67.76229819998844,68.26221909999731,68.74584489999688,None,0,68.76231039999402,,,,,,,,,,,,,,,4,001,2026-04-21_13h29.04.554,0back,,2025.1.1,59.56291541082484,2026-04-21 13h29.11.100489 +0200,
11,11,0,N,A,return,2.0882558999874163,None,None,0,,,,,,,,0,0,0,0,0,1,1,3,0,11,11,31,68.76231039999402,,,,,,,,,,,,,,,68.74712699998054,68.76231039999402,68.76231039999402,69.26221089999308,69.74585559999105,None,0,69.76221159999841,,,,,,,,,,,,,,,4,001,2026-04-21_13h29.04.554,0back,,2025.1.1,59.56291541082484,2026-04-21 13h29.11.100489 +0200,
12,12,0,N,Y,return,2.0882558999874163,None,None,0,,,,,,,,0,0,0,0,0,1,1,3,0,12,12,42,69.76221159999841,,,,,,,,,,,,,,,69.74704209997435,69.76221159999841,69.76221159999841,70.26227469998412,70.74600749998353,None,0,,,,,,,,,,,,,,,,4,001,2026-04-21_13h29.04.554,0back,,2025.1.1,59.56291541082484,2026-04-21 13h29.11.100489 +0200,
13,13,0,N,N,return,2.0882558999874163,None,space,1,0.522897799994098,0.14402830001199618,,,,,,0,0,0,0,0,1,1,3,0,13,13,26,70.76233299999149,,,,,,,,,,,,,,,70.748521099973,70.76233299999149,70.76233299999149,71.26219969999511,71.74581789999502,space,1,71.76227999999537,0.522897799994098,0.14402830001199618,,,,,,,,,,,,,4,001,2026-04-21_13h29.04.554,0back,,2025.1.1,59.56291541082484,2026-04-21 13h29.11.100489 +0200,
14,14,0,N,E,return,2.0882558999874163,None,None,0,,,,,,,,0,0,0,0,0,1,1,3,0,14,14,40,71.76227999999537,,,,,,,,,,,,,,,71.74710889998823,71.76227999999537,71.76227999999537,72.26222829998005,72.74602099999902,None,0,72.76225829997566,,,,,,,,,,,,,,,4,001,2026-04-21_13h29.04.554,0back,,2025.1.1,59.56291541082484,2026-04-21 13h29.11.100489 +0200,
15,15,0,N,M,return,2.0882558999874163,None,None,0,,,,,,,,0,0,0,0,0,1,1,3,0,15,15,2,72.76225829997566,,,,,,,,,,,,,,,72.74790259997826,72.76225829997566,72.76225829997566,73.26259189998382,73.74579869999434,None,0,73.7622612999985,,,,,,,,,,,,,,,4,001,2026-04-21_13h29.04.554,0back,,2025.1.1,59.56291541082484,2026-04-21 13h29.11.100489 +0200,
16,16,0,N,R,return,2.0882558999874163,None,None,0,,,,,,,,0,0,0,0,0,1,1,3,0,16,16,14,73.7622612999985,,,,,,,,,,,,,,,73.74723949999316,73.7622612999985,73.7622612999985,74.2622692999721,74.74585409997962,None,0,74.76263149999431,,,,,,,,,,,,,,,4,001,2026-04-21_13h29.04.554,0back,,2025.1.1,59.56291541082484,2026-04-21 13h29.11.100489 +0200,
17,17,0,N,Q,return,2.0882558999874163,None,None,0,,,,,,,,0,0,0,0,0,1,1,3,0,17,17,47,74.76263149999431,,,,,,,,,,,,,,,74.74717019998934,74.76263149999431,74.76263149999431,75.26226839999435,75.74585479998495,None,0,75.76225759999943,,,,,,,,,,,,,,,4,001,2026-04-21_13h29.04.554,0back,,2025.1.1,59.56291541082484,2026-04-21 13h29.11.100489 +0200,
18,18,0,N,M,return,2.0882558999874163,None,None,0,,,,,,,,0,0,0,0,0,1,1,3,0,18,18,7,75.76225759999943,,,,,,,,,,,,,,,75.74707169999601,75.76225759999943,75.76225759999943,76.2621966000006,76.74566809998942,None,0,76.7623106999963,,,,,,,,,,,,,,,4,001,2026-04-21_13h29.04.554,0back,,2025.1.1,59.56291541082484,2026-04-21 13h29.11.100489 +0200,
19,19,0,N,N,return,2.0882558999874163,None,space,1,0.5077652999898419,0.1436151000089012,,,,,,0,0,0,0,0,1,1,3,0,19,19,27,76.7623106999963,,,,,,,,,,,,,,,76.74757089998457,76.7623106999963,76.7623106999963,77.26229220000096,77.7458882999781,space,1,77.76227429998107,0.5077652999898419,0.1436151000089012,,,,,,,,,,,,,4,001,2026-04-21_13h29.04.554,0back,,2025.1.1,59.56291541082484,2026-04-21 13h29.11.100489 +0200,
20,20,0,N,Z,return,2.0882558999874163,None,None,0,,,,,,,,0,0,0,0,0,1,1,3,0,20,20,39,77.76227429998107,,,,,,,,,,,,,,,77.74735459999647,77.76227429998107,77.76227429998107,78.26221489999443,78.74585359997582,None,0,78.76235899998574,,,,,,,,,,,,,,,4,001,2026-04-21_13h29.04.554,0back,,2025.1.1,59.56291541082484,2026-04-21 13h29.11.100489 +0200,
21,21,0,N,A,return,2.0882558999874163,None,None,0,,,,,,,,0,0,0,0,0,1,1,3,0,21,21,37,78.76235899998574,,,,,,,,,,,,,,,78.74723849998554,78.76235899998574,78.76235899998574,79.26233079997473,79.745743699983,None,0,79.7628705999814,,,,,,,,,,,,,,,4,001,2026-04-21_13h29.04.554,0back,,2025.1.1,59.56291541082484,2026-04-21 13h29.11.100489 +0200,
22,22,0,N,A,return,2.0882558999874163,None,None,0,,,,,,,,0,0,0,0,0,1,1,3,0,22,22,36,79.7628705999814,,,,,,,,,,,,,,,79.74591099997633,79.7628705999814,79.7628705999814,80.26239209997584,80.74593139998615,None,0,80.76226099999622,,,,,,,,,,,,,,,4,001,2026-04-21_13h29.04.554,0back,,2025.1.1,59.56291541082484,2026-04-21 13h29.11.100489 +0200,
23,23,0,N,A,return,2.0882558999874163,None,None,0,,,,,,,,0,0,0,0,0,1,1,3,0,23,23,29,80.76226099999622,,,,,,,,,,,,,,,80.7460613999865,80.76226099999622,80.76226099999622,81.26238639999065,81.74579469999298,None,0,81.76235199999064,,,,,,,,,,,,,,,4,001,2026-04-21_13h29.04.554,0back,,2025.1.1,59.56291541082484,2026-04-21 13h29.11.100489 +0200,
24,24,0,N,M,return,2.0882558999874163,None,None,0,,,,,,,,0,0,0,0,0,1,1,3,0,24,24,4,81.76235199999064,,,,,,,,,,,,,,,81.74735909997253,81.76235199999064,81.76235199999064,82.26225479997811,82.74569499999052,None,0,82.76230299999588,,,,,,,,,,,,,,,4,001,2026-04-21_13h29.04.554,0back,,2025.1.1,59.56291541082484,2026-04-21 13h29.11.100489 +0200,
25,25,0,N,M,return,2.0882558999874163,None,None,0,,,,,,,,0,0,0,0,0,1,1,3,0,25,25,5,82.76230299999588,,,,,,,,,,,,,,,82.74582469998859,82.76230299999588,82.76230299999588,83.2622718999919,83.74588039997616,None,0,83.76224179999554,,,,,,,,,,,,,,,4,001,2026-04-21_13h29.04.554,0back,,2025.1.1,59.56291541082484,2026-04-21 13h29.11.100489 +0200,
26,26,0,N,R,return,2.0882558999874163,None,None,0,,,,,,,,0,0,0,0,0,1,1,3,0,26,26,10,83.76224179999554,,,,,,,,,,,,,,,83.7477249999938,83.76224179999554,83.76224179999554,84.2622418999963,84.74579069999163,None,0,84.7623797999986,,,,,,,,,,,,,,,4,001,2026-04-21_13h29.04.554,0back,,2025.1.1,59.56291541082484,2026-04-21 13h29.11.100489 +0200,
27,27,0,N,N,return,2.0882558999874163,None,space,1,0.5716007000009995,0.1444774999981746,,,,,,0,0,0,0,0,1,1,3,0,27,27,21,84.7623797999986,,,,,,,,,,,,,,,84.7481394999777,84.7623797999986,84.7623797999986,85.26223199997912,85.74577619999764,space,1,85.76223629998276,0.5716007000009995,0.1444774999981746,,,,,,,,,,,,,4,001,2026-04-21_13h29.04.554,0back,,2025.1.1,59.56291541082484,2026-04-21 13h29.11.100489 +0200,
28,28,0,N,T,return,2.0882558999874163,None,None,0,,,,,,,,0,0,0,0,0,1,1,3,0,28,28,41,85.76223629998276,,,,,,,,,,,,,,,85.74726129998453,85.76223629998276,85.76223629998276,86.26220449997345,86.74591589998454,None,0,86.76224299997557,,,,,,,,,,,,,,,4,001,2026-04-21_13h29.04.554,0back,,2025.1.1,59.56291541082484,2026-04-21 13h29.11.100489 +0200,
29,29,0,N,R,return,2.0882558999874163,None,None,0,,,,,,,,0,0,0,0,0,1,1,3,0,29,29,11,86.76224299997557,,,,,,,,,,,,,,,86.74773009997443,86.76224299997557,86.76224299997557,87.2622454999946,87.7459335999738,None,0,87.76227310000104,,,,,,,,,,,,,,,4,001,2026-04-21_13h29.04.554,0back,,2025.1.1,59.56291541082484,2026-04-21 13h29.11.100489 +0200,
30,30,0,N,R,return,2.0882558999874163,None,None,0,,,,,,,,0,0,0,0,0,1,1,3,0,30,30,12,87.76227310000104,,,,,,,,,,,,,,,87.74606779997703,87.76227310000104,87.76227310000104,88.26284309997573,88.74582409998402,None,0,88.76231890000054,,,,,,,,,,,,,,,4,001,2026-04-21_13h29.04.554,0back,,2025.1.1,59.56291541082484,2026-04-21 13h29.11.100489 +0200,
31,31,0,N,A,return,2.0882558999874163,None,None,0,,,,,,,,0,0,0,0,0,1,1,3,0,31,31,34,88.76231890000054,,,,,,,,,,,,,,,88.74719419999747,88.76231890000054,88.76231890000054,89.26219539999147,89.74608409998473,None,0,,,,,,,,,,,,,,,,4,001,2026-04-21_13h29.04.554,0back,,2025.1.1,59.56291541082484,2026-04-21 13h29.11.100489 +0200,
32,32,0,N,A,return,2.0882558999874163,None,None,0,,,,,,,,0,0,0,0,0,1,1,3,0,32,32,30,89.76228919997811,,,,,,,,,,,,,,,89.74655709997751,89.76228919997811,89.76228919997811,90.26228239998454,90.74576559997513,None,0,90.76218449999578,,,,,,,,,,,,,,,4,001,2026-04-21_13h29.04.554,0back,,2025.1.1,59.56291541082484,2026-04-21 13h29.11.100489 +0200,
33,33,0,N,R,return,2.0882558999874163,None,None,0,,,,,,,,0,0,0,0,0,1,1,3,0,33,33,18,90.76218449999578,,,,,,,,,,,,,,,90.74697719997494,90.76218449999578,90.76218449999578,91.26228749999427,91.74619859998347,None,0,,,,,,,,,,,,,,,,4,001,2026-04-21_13h29.04.554,0back,,2025.1.1,59.56291541082484,2026-04-21 13h29.11.100489 +0200,
34,34,0,N,A,return,2.0882558999874163,None,None,0,,,,,,,,0,0,0,0,0,1,1,3,0,34,34,33,91.7622718999919,,,,,,,,,,,,,,,91.74792299998808,91.7622718999919,91.7622718999919,92.26227849998395,92.74634849998984,None,0,,,,,,,,,,,,,,,,4,001,2026-04-21_13h29.04.554,0back,,2025.1.1,59.56291541082484,2026-04-21 13h29.11.100489 +0200,
35,35,0,N,R,return,2.0882558999874163,None,None,0,,,,,,,,0,0,0,0,0,1,1,3,0,35,35,16,92.76293509997777,,,,,,,,,,,,,,,92.7482377999986,92.76293509997777,92.76293509997777,93.26239799999166,93.74567139998544,None,0,93.76217319999705,,,,,,,,,,,,,,,4,001,2026-04-21_13h29.04.554,0back,,2025.1.1,59.56291541082484,2026-04-21 13h29.11.100489 +0200,
36,36,0,N,D,return,2.0882558999874163,None,None,0,,,,,,,,0,0,0,0,0,1,1,3,0,36,36,48,93.76217319999705,,,,,,,,,,,,,,,93.74696709998534,93.76217319999705,93.76217319999705,94.26224250000087,94.74591579998378,None,0,94.76373219999368,,,,,,,,,,,,,,,4,001,2026-04-21_13h29.04.554,0back,,2025.1.1,59.56291541082484,2026-04-21 13h29.11.100489 +0200,
37,37,0,N,N,return,2.0882558999874163,None,space,1,0.4819169999973383,0.13627199997426942,,,,,,0,0,0,0,0,1,1,3,0,37,37,20,94.76373219999368,,,,,,,,,,,,,,,94.74854519998189,94.76373219999368,94.76373219999368,95.27877169998828,95.76223919997574,space,1,,0.4819169999973383,0.13627199997426942,,,,,,,,,,,,,4,001,2026-04-21_13h29.04.554,0back,,2025.1.1,59.56291541082484,2026-04-21 13h29.11.100489 +0200,
38,38,0,N,O,return,2.0882558999874163,None,None,0,,,,,,,,0,0,0,0,0,1,1,3,0,38,38,45,95.7789392999839,,,,,,,,,,,,,,,95.76352069998393,95.7789392999839,95.7789392999839,96.27906749999966,96.76241279998794,None,0,,,,,,,,,,,,,,,,4,001,2026-04-21_13h29.04.554,0back,,2025.1.1,59.56291541082484,2026-04-21 13h29.11.100489 +0200,
39,39,0,N,M,return,2.0882558999874163,None,None,0,,,,,,,,0,0,0,0,0,1,1,3,0,39,39,8,96.77884869999252,,,,,,,,,,,,,,,96.7648865999945,96.77884869999252,96.77884869999252,97.27889139999752,97.76233729999512,None,0,,,,,,,,,,,,,,,,4,001,2026-04-21_13h29.04.554,0back,,2025.1.1,59.56291541082484,2026-04-21 13h29.11.100489 +0200,
40,40,0,N,A,return,2.0882558999874163,None,None,0,,,,,,,,0,0,0,0,0,1,1,3,0,40,40,32,97.77875929998117,,,,,,,,,,,,,,,97.76378469998599,97.77875929998117,97.77875929998117,98.27884839999024,98.76233309999225,None,0,,,,,,,,,,,,,,,,4,001,2026-04-21_13h29.04.554,0back,,2025.1.1,59.56291541082484,2026-04-21 13h29.11.100489 +0200,
41,41,0,N,A,return,2.0882558999874163,None,None,0,,,,,,,,0,0,0,0,0,1,1,3,0,41,41,38,98.77880509998067,,,,,,,,,,,,,,,98.76248989999294,98.77880509998067,98.77880509998067,99.2788603999943,99.76248929998837,None,0,,,,,,,,,,,,,,,,4,001,2026-04-21_13h29.04.554,0back,,2025.1.1,59.56291541082484,2026-04-21 13h29.11.100489 +0200,
42,42,0,N,N,return,2.0882558999874163,None,space,1,0.5638835999998264,0.14372500000172295,,,,,,0,0,0,0,0,1,1,3,0,42,42,23,99.77882069998304,,,,,,,,,,,,,,,99.76474909999524,99.77882069998304,99.77882069998304,100.27874219999649,100.76236829999834,space,1,,0.5638835999998264,0.14372500000172295,,,,,,,,,,,,,4,001,2026-04-21_13h29.04.554,0back,,2025.1.1,59.56291541082484,2026-04-21 13h29.11.100489 +0200,
43,43,0,N,R,return,2.0882558999874163,None,None,0,,,,,,,,0,0,0,0,0,1,1,3,0,43,43,9,100.7788290999888,,,,,,,,,,,,,,,100.76366269998834,100.7788290999888,100.7788290999888,101.27883689998998,101.76229359998251,None,0,,,,,,,,,,,,,,,,4,001,2026-04-21_13h29.04.554,0back,,2025.1.1,59.56291541082484,2026-04-21 13h29.11.100489 +0200,
44,44,0,N,N,return,2.0882558999874163,None,space,1,0.8823269999993499,None,,,,,,0,0,0,0,0,1,1,3,0,44,44,25,101.77935989998514,,,,,,,,,,,,,,,101.7644935999997,101.77935989998514,101.77935989998514,102.27874069998506,102.74616689997492,space,1,,0.8823269999993499,None,,,,,,,,,,,,,4,001,2026-04-21_13h29.04.554,0back,,2025.1.1,59.56291541082484,2026-04-21 13h29.11.100489 +0200,
45,45,0,N,U,return,2.0882558999874163,None,None,0,,,,,,,,0,0,0,0,0,1,1,3,0,45,45,43,102.76229809998767,,,,,,,,,,,,,,,102.74796219999553,102.76229809998767,102.76229809998767,103.26233759999741,103.7457480999874,None,0,103.76220029999968,,,,,,,,,,,,,,,4,001,2026-04-21_13h29.04.554,0back,,2025.1.1,59.56291541082484,2026-04-21 13h29.11.100489 +0200,
46,46,0,N,I,return,2.0882558999874163,None,None,0,,,,,,,,0,0,0,0,0,1,1,3,0,46,46,44,103.76220029999968,,,,,,,,,,,,,,,103.74697649999871,103.76220029999968,103.76220029999968,104.2622682999936,104.74580979999155,None,0,104.76273999997647,,,,,,,,,,,,,,,4,001,2026-04-21_13h29.04.554,0back,,2025.1.1,59.56291541082484,2026-04-21 13h29.11.100489 +0200,
47,47,0,N,N,return,2.0882558999874163,None,space,1,0.5071255000075325,0.12824200000613928,,,,,,0,0,0,0,0,1,1,3,0,47,47,28,104.76273999997647,,,,,,,,,,,,,,,104.74842399999034,104.76273999997647,104.76273999997647,105.26228209998226,105.74569859998883,space,1,105.76225269999122,0.5071255000075325,0.12824200000613928,,,,,,,,,,,,,4,001,2026-04-21_13h29.04.554,0back,,2025.1.1,59.56291541082484,2026-04-21 13h29.11.100489 +0200,
48,48,0,N,N,return,2.0882558999874163,None,space,1,0.49260789999971166,0.13499680001405068,,,,,,0,0,0,0,0,1,1,3,0,48,48,22,105.76225269999122,,,,,,,,,,,,,,,105.74648639999214,105.76225269999122,105.76225269999122,106.26260329998331,106.74594279998564,space,1,106.76228659998742,0.49260789999971166,0.13499680001405068,,,,,,,,,,,,,4,001,2026-04-21_13h29.04.554,0back,,2025.1.1,59.56291541082484,2026-04-21 13h29.11.100489 +0200,
49,49,0,N,N,return,2.0882558999874163,None,space,1,0.4432276000152342,0.12840759998653084,,,,,,0,0,0,0,0,1,1,3,0,49,49,19,106.76228659998742,,,,,,,,,,,,,,,106.74682729999768,106.76228659998742,106.76228659998742,107.26229689997854,107.74567619999289,space,1,107.76245159999235,0.4432276000152342,0.12840759998653084,,,,,,,,,,,,,4,001,2026-04-21_13h29.04.554,0back,,2025.1.1,59.56291541082484,2026-04-21 13h29.11.100489 +0200,
1,1,0,N,,return,2.0882558999874163,None,,,,,,,,,,0,0,0,0,0,1,1,3,,,,,,,,,,,,,,,,,,,,,,,,,,,,,,,,,,,,,,,,,,4,001,2026-04-21_13h29.04.554,0back,,2025.1.1,59.56291541082484,2026-04-21 13h29.11.100489 +0200,
0,0,0,R,R,return,1.883559999987483,None,space,1,0.607217100012349,0.11962270000367425,,,,,,0,0,0,0,0,2,2,1,0,0,0,15,109.67876309997519,,,,,,107.75272409999161,107.76245159999235,107.76245159999235,107.76245159999235,107.76245159999235,109.66273799998453,return,1.883559999987483,None,109.67043679999188,109.67876309997519,109.67876309997519,110.17883729998721,110.66238109997357,space,1,110.6789834999945,0.607217100012349,0.11962270000367425,,,,,,,,,,,,,4,001,2026-04-21_13h29.04.554,0back,,2025.1.1,59.56291541082484,2026-04-21 13h29.11.100489 +0200,
1,1,0,R,N,return,1.883559999987483,None,None,0,,,,,,,,0,0,0,0,0,2,2,1,0,1,1,26,110.6789834999945,,,,,,,,,,,,,,,110.66366749998997,110.6789834999945,110.6789834999945,111.17898419999983,111.66260899999179,None,0,111.67882989998907,,,,,,,,,,,,,,,4,001,2026-04-21_13h29.04.554,0back,,2025.1.1,59.56291541082484,2026-04-21 13h29.11.100489 +0200,
2,2,0,R,A,return,1.883559999987483,None,None,0,,,,,,,,0,0,0,0,0,2,2,1,0,2,2,31,111.67882989998907,,,,,,,,,,,,,,,111.66394649998983,111.67882989998907,111.67882989998907,112.17881009998382,112.66241949997493,None,0,112.67902719997801,,,,,,,,,,,,,,,4,001,2026-04-21_13h29.04.554,0back,,2025.1.1,59.56291541082484,2026-04-21 13h29.11.100489 +0200,
3,3,0,R,A,return,1.883559999987483,None,None,0,,,,,,,,0,0,0,0,0,2,2,1,0,3,3,32,112.67902719997801,,,,,,,,,,,,,,,112.66259089999949,112.67902719997801,112.67902719997801,113.17900969999027,113.66245479998179,None,0,113.67883219997748,,,,,,,,,,,,,,,4,001,2026-04-21_13h29.04.554,0back,,2025.1.1,59.56291541082484,2026-04-21 13h29.11.100489 +0200,
4,4,0,R,N,return,1.883559999987483,None,space,1,0.5430506999837235,0.18402810001862235,,,,,,0,0,0,0,0,2,2,1,0,4,4,23,113.67883219997748,,,,,,,,,,,,,,,113.66373010000098,113.67883219997748,113.67883219997748,114.17888459999813,114.6623248999822,space,1,114.67877929998212,0.5430506999837235,0.18402810001862235,,,,,,,,,,,,,4,001,2026-04-21_13h29.04.554,0back,,2025.1.1,59.56291541082484,2026-04-21 13h29.11.100489 +0200,
5,5,0,R,U,return,1.883559999987483,None,None,0,,,,,,,,0,0,0,0,0,2,2,1,0,5,5,43,114.67877929998212,,,,,,,,,,,,,,,114.66352489998098,114.67877929998212,114.67877929998212,115.17874999999185,115.66331049997825,None,0,,,,,,,,,,,,,,,,4,001,2026-04-21_13h29.04.554,0back,,2025.1.1,59.56291541082484,2026-04-21 13h29.11.100489 +0200,
6,6,0,R,N,return,1.883559999987483,None,None,0,,,,,,,,0,0,0,0,0,2,2,1,0,6,6,21,115.67879209999228,,,,,,,,,,,,,,,115.6648497999995,115.67879209999228,115.67879209999228,116.17878409998957,116.66233789999387,None,0,116.67915339997853,,,,,,,,,,,,,,,4,001,2026-04-21_13h29.04.554,0back,,2025.1.1,59.56291541082484,2026-04-21 13h29.11.100489 +0200,
7,7,0,R,M,return,1.883559999987483,None,None,0,,,,,,,,0,0,0,0,0,2,2,1,0,7,7,5,116.67915339997853,,,,,,,,,,,,,,,116.66356439999072,116.67915339997853,116.67915339997853,117.17897719997563,117.66243810000014,None,0,117.67877790000057,,,,,,,,,,,,,,,4,001,2026-04-21_13h29.04.554,0back,,2025.1.1,59.56291541082484,2026-04-21 13h29.11.100489 +0200,
8,8,0,R,R,return,1.883559999987483,None,space,1,0.47176529999705963,0.143059699999867,,,,,,0,0,0,0,0,2,2,1,0,8,8,18,117.67877790000057,,,,,,,,,,,,,,,117.66445149999345,117.67877790000057,117.67877790000057,118.17867759999353,118.66235339999548,space,1,118.67894629997318,0.47176529999705963,0.143059699999867,,,,,,,,,,,,,4,001,2026-04-21_13h29.04.554,0back,,2025.1.1,59.56291541082484,2026-04-21 13h29.11.100489 +0200,
9,9,0,R,M,return,1.883559999987483,None,None,0,,,,,,,,0,0,0,0,0,2,2,1,0,9,9,7,118.67894629997318,,,,,,,,,,,,,,,118.66364319997956,118.67894629997318,118.67894629997318,119.17874129998381,119.66243050000048,None,0,119.67881899999338,,,,,,,,,,,,,,,4,001,2026-04-21_13h29.04.554,0back,,2025.1.1,59.56291541082484,2026-04-21 13h29.11.100489 +0200,
10,10,0,R,P,return,1.883559999987483,None,None,0,,,,,,,,0,0,0,0,0,2,2,1,0,10,10,46,119.67881899999338,,,,,,,,,,,,,,,119.66362049998133,119.67881899999338,119.67881899999338,120.17886279997765,120.66241579997586,None,0,120.6788644999906,,,,,,,,,,,,,,,4,001,2026-04-21_13h29.04.554,0back,,2025.1.1,59.56291541082484,2026-04-21 13h29.11.100489 +0200,
11,11,0,R,R,return,1.883559999987483,None,space,1,0.4871952999965288,0.19209100000443868,,,,,,0,0,0,0,0,2,2,1,0,11,11,16,120.6788644999906,,,,,,,,,,,,,,,120.66429149999749,120.6788644999906,120.6788644999906,121.1787878999894,121.66243219998432,space,1,121.67874949998804,0.4871952999965288,0.19209100000443868,,,,,,,,,,,,,4,001,2026-04-21_13h29.04.554,0back,,2025.1.1,59.56291541082484,2026-04-21 13h29.11.100489 +0200,
12,12,0,R,N,return,1.883559999987483,None,None,0,,,,,,,,0,0,0,0,0,2,2,1,0,12,12,28,121.67874949998804,,,,,,,,,,,,,,,121.66371589998016,121.67874949998804,121.67874949998804,122.1788569999917,122.66242809998221,None,0,122.67887579998933,,,,,,,,,,,,,,,4,001,2026-04-21_13h29.04.554,0back,,2025.1.1,59.56291541082484,2026-04-21 13h29.11.100489 +0200,
13,13,0,R,R,return,1.883559999987483,None,space,1,0.5750599000020884,0.1441079000069294,,,,,,0,0,0,0,0,2,2,1,0,13,13,9,122.67887579998933,,,,,,,,,,,,,,,122.66444889997365,122.67887579998933,122.67887579998933,123.17880579998018,123.66239079998923,space,1,123.6788658000005,0.5750599000020884,0.1441079000069294,,,,,,,,,,,,,4,001,2026-04-21_13h29.04.554,0back,,2025.1.1,59.56291541082484,2026-04-21 13h29.11.100489 +0200,
14,14,0,R,N,return,1.883559999987483,None,None,0,,,,,,,,0,0,0,0,0,2,2,1,0,14,14,25,123.6788658000005,,,,,,,,,,,,,,,123.66397009999491,123.6788658000005,123.6788658000005,124.17903849997674,124.66229119998752,None,0,124.67884989999584,,,,,,,,,,,,,,,4,001,2026-04-21_13h29.04.554,0back,,2025.1.1,59.56291541082484,2026-04-21 13h29.11.100489 +0200,
15,15,0,R,N,return,1.883559999987483,None,None,0,,,,,,,,0,0,0,0,0,2,2,1,0,15,15,22,124.67884989999584,,,,,,,,,,,,,,,124.66246969997883,124.67884989999584,124.67884989999584,125.17880080000032,125.66243179998128,None,0,125.67874379997374,,,,,,,,,,,,,,,4,001,2026-04-21_13h29.04.554,0back,,2025.1.1,59.56291541082484,2026-04-21 13h29.11.100489 +0200,
16,16,0,R,M,return,1.883559999987483,None,None,0,,,,,,,,0,0,0,0,0,2,2,1,0,16,16,0,125.67874379997374,,,,,,,,,,,,,,,125.66387589997612,125.67874379997374,125.67874379997374,126.17906709999079,126.66249129999778,None,0,126.67876239999896,,,,,,,,,,,,,,,4,001,2026-04-21_13h29.04.554,0back,,2025.1.1,59.56291541082484,2026-04-21 13h29.11.100489 +0200,
17,17,0,R,M,return,1.883559999987483,None,None,0,,,,,,,,0,0,0,0,0,2,2,1,0,17,17,4,126.67876239999896,,,,,,,,,,,,,,,126.6627121999918,126.67876239999896,126.67876239999896,127.17876209999667,127.66240139998263,None,0,127.6787094999745,,,,,,,,,,,,,,,4,001,2026-04-21_13h29.04.554,0back,,2025.1.1,59.56291541082484,2026-04-21 13h29.11.100489 +0200,
18,18,0,R,M,return,1.883559999987483,None,None,0,,,,,,,,0,0,0,0,0,2,2,1,0,18,18,2,127.6787094999745,,,,,,,,,,,,,,,127.66252849999,127.6787094999745,127.6787094999745,128.17873039998813,128.66284899998573,None,0,,,,,,,,,,,,,,,,4,001,2026-04-21_13h29.04.554,0back,,2025.1.1,59.56291541082484,2026-04-21 13h29.11.100489 +0200,
19,19,0,R,T,return,1.883559999987483,None,None,0,,,,,,,,0,0,0,0,0,2,2,1,0,19,19,41,128.67872699999134,,,,,,,,,,,,,,,128.66451219998999,128.67872699999134,128.67872699999134,129.17868329997873,129.66253589998814,None,0,129.67938819999108,,,,,,,,,,,,,,,4,001,2026-04-21_13h29.04.554,0back,,2025.1.1,59.56291541082484,2026-04-21 13h29.11.100489 +0200,
20,20,0,R,A,return,1.883559999987483,None,None,0,,,,,,,,0,0,0,0,0,2,2,1,0,20,20,34,129.67938819999108,,,,,,,,,,,,,,,129.6639374999795,129.67938819999108,129.67938819999108,130.1788608999923,130.66252259997418,None,0,130.6788274999999,,,,,,,,,,,,,,,4,001,2026-04-21_13h29.04.554,0back,,2025.1.1,59.56291541082484,2026-04-21 13h29.11.100489 +0200,
21,21,0,R,A,return,1.883559999987483,None,None,0,,,,,,,,0,0,0,0,0,2,2,1,0,21,21,30,130.6788274999999,,,,,,,,,,,,,,,130.66266009997344,130.6788274999999,130.6788274999999,131.1787904999801,131.66239299997687,None,0,131.6787024999794,,,,,,,,,,,,,,,4,001,2026-04-21_13h29.04.554,0back,,2025.1.1,59.56291541082484,2026-04-21 13h29.11.100489 +0200,
22,22,0,R,N,return,1.883559999987483,None,None,0,,,,,,,,0,0,0,0,0,2,2,1,0,22,22,27,131.6787024999794,,,,,,,,,,,,,,,131.66359559999546,131.6787024999794,131.6787024999794,132.17884279999998,132.6625359999889,None,0,132.67878949997248,,,,,,,,,,,,,,,4,001,2026-04-21_13h29.04.554,0back,,2025.1.1,59.56291541082484,2026-04-21 13h29.11.100489 +0200,
23,23,0,R,R,return,1.883559999987483,None,space,1,0.5103333000151906,0.16812560000107624,,,,,,0,0,0,0,0,2,2,1,0,23,23,11,132.67878949997248,,,,,,,,,,,,,,,132.6645985999785,132.67878949997248,132.67878949997248,133.17885449997266,133.6624588999839,space,1,133.6788204999757,0.5103333000151906,0.16812560000107624,,,,,,,,,,,,,4,001,2026-04-21_13h29.04.554,0back,,2025.1.1,59.56291541082484,2026-04-21 13h29.11.100489 +0200,
24,24,0,R,A,return,1.883559999987483,None,None,0,,,,,,,,0,0,0,0,0,2,2,1,0,24,24,37,133.6788204999757,,,,,,,,,,,,,,,133.6638267999806,133.6788204999757,133.6788204999757,134.1788424999977,134.6624852999812,None,0,134.67889279997326,,,,,,,,,,,,,,,4,001,2026-04-21_13h29.04.554,0back,,2025.1.1,59.56291541082484,2026-04-21 13h29.11.100489 +0200,
25,25,0,R,R,return,1.883559999987483,None,space,1,0.5264122000080533,0.16783059999579564,,,,,,0,0,0,0,0,2,2,1,0,25,25,10,134.67889279997326,,,,,,,,,,,,,,,134.66456149998703,134.67889279997326,134.67889279997326,135.17923849998624,135.66243929998018,space,1,135.6797055999923,0.5264122000080533,0.16783059999579564,,,,,,,,,,,,,4,001,2026-04-21_13h29.04.554,0back,,2025.1.1,59.56291541082484,2026-04-21 13h29.11.100489 +0200,
26,26,0,R,R,return,1.883559999987483,None,space,1,0.6216998999880161,0.16859990000375547,,,,,,0,0,0,0,0,2,2,1,0,26,26,14,135.6797055999923,,,,,,,,,,,,,,,135.66318939998746,135.6797055999923,135.6797055999923,136.17882709999685,136.66244639997603,space,1,136.67873699998017,0.6216998999880161,0.16859990000375547,,,,,,,,,,,,,4,001,2026-04-21_13h29.04.554,0back,,2025.1.1,59.56291541082484,2026-04-21 13h29.11.100489 +0200,
27,27,0,R,N,return,1.883559999987483,None,None,0,,,,,,,,0,0,0,0,0,2,2,1,0,27,27,24,136.67873699998017,,,,,,,,,,,,,,,136.66396069998154,136.67873699998017,136.67873699998017,137.17874919998576,137.66240749999997,None,0,137.67872799999896,,,,,,,,,,,,,,,4,001,2026-04-21_13h29.04.554,0back,,2025.1.1,59.56291541082484,2026-04-21 13h29.11.100489 +0200,
28,28,0,R,M,return,1.883559999987483,None,None,0,,,,,,,,0,0,0,0,0,2,2,1,0,28,28,3,137.67872799999896,,,,,,,,,,,,,,,137.66375739997602,137.67872799999896,137.67872799999896,138.1788155999966,138.66244459999143,None,0,138.67878849999397,,,,,,,,,,,,,,,4,001,2026-04-21_13h29.04.554,0back,,2025.1.1,59.56291541082484,2026-04-21 13h29.11.100489 +0200,
29,29,0,R,Z,return,1.883559999987483,None,None,0,,,,,,,,0,0,0,0,0,2,2,1,0,29,29,39,138.67878849999397,,,,,,,,,,,,,,,138.6636236999766,138.67878849999397,138.67878849999397,139.17883089999668,139.66278919999604,None,0,139.67888769999263,,,,,,,,,,,,,,,4,001,2026-04-21_13h29.04.554,0back,,2025.1.1,59.56291541082484,2026-04-21 13h29.11.100489 +0200,
30,30,0,R,E,return,1.883559999987483,None,None,0,,,,,,,,0,0,0,0,0,2,2,1,0,30,30,40,139.67888769999263,,,,,,,,,,,,,,,139.66415919997962,139.67888769999263,139.67888769999263,140.1787956999906,140.6625028999988,None,0,140.678789699974,,,,,,,,,,,,,,,4,001,2026-04-21_13h29.04.554,0back,,2025.1.1,59.56291541082484,2026-04-21 13h29.11.100489 +0200,
31,31,0,R,A,return,1.883559999987483,None,None,0,,,,,,,,0,0,0,0,0,2,2,1,0,31,31,33,140.678789699974,,,,,,,,,,,,,,,140.6637509999855,140.678789699974,140.678789699974,141.17869919998338,141.66262289998122,None,0,141.6793593999755,,,,,,,,,,,,,,,4,001,2026-04-21_13h29.04.554,0back,,2025.1.1,59.56291541082484,2026-04-21 13h29.11.100489 +0200,
32,32,0,R,R,return,1.883559999987483,None,space,1,0.5976497000083327,0.16813219999312423,,,,,,0,0,0,0,0,2,2,1,0,32,32,13,141.6793593999755,,,,,,,,,,,,,,,141.6650761999772,141.6793593999755,141.6793593999755,142.17886489999364,142.66293229997973,space,1,,0.5976497000083327,0.16813219999312423,,,,,,,,,,,,,4,001,2026-04-21_13h29.04.554,0back,,2025.1.1,59.56291541082484,2026-04-21 13h29.11.100489 +0200,
33,33,0,R,N,return,1.883559999987483,None,None,0,,,,,,,,0,0,0,0,0,2,2,1,0,33,33,19,142.67888199997833,,,,,,,,,,,,,,,142.66463699997985,142.67888199997833,142.67888199997833,143.17872440000065,143.66230229998473,None,0,143.67876419998356,,,,,,,,,,,,,,,4,001,2026-04-21_13h29.04.554,0back,,2025.1.1,59.56291541082484,2026-04-21 13h29.11.100489 +0200,
34,34,0,R,O,return,1.883559999987483,None,None,0,,,,,,,,0,0,0,0,0,2,2,1,0,34,34,45,143.67876419998356,,,,,,,,,,,,,,,143.66350609998335,143.67876419998356,143.67876419998356,144.17877929998212,144.66273819998605,None,0,144.6792204999947,,,,,,,,,,,,,,,4,001,2026-04-21_13h29.04.554,0back,,2025.1.1,59.56291541082484,2026-04-21 13h29.11.100489 +0200,
35,35,0,R,R,return,1.883559999987483,None,space,1,0.6300182999984827,0.1600544999819249,,,,,,0,0,0,0,0,2,2,1,0,35,35,12,144.6792204999947,,,,,,,,,,,,,,,144.66463029998704,144.6792204999947,144.6792204999947,145.17885269998806,145.66238629998406,space,1,145.67887099998188,0.6300182999984827,0.1600544999819249,,,,,,,,,,,,,4,001,2026-04-21_13h29.04.554,0back,,2025.1.1,59.56291541082484,2026-04-21 13h29.11.100489 +0200,
36,36,0,R,Q,return,1.883559999987483,None,None,0,,,,,,,,0,0,0,0,0,2,2,1,0,36,36,47,145.67887099998188,,,,,,,,,,,,,,,145.66434019998997,145.67887099998188,145.67887099998188,146.17877229998703,146.66260599999805,None,0,146.67885629998636,,,,,,,,,,,,,,,4,001,2026-04-21_13h29.04.554,0back,,2025.1.1,59.56291541082484,2026-04-21 13h29.11.100489 +0200,
37,37,0,R,N,return,1.883559999987483,None,None,0,,,,,,,,0,0,0,0,0,2,2,1,0,37,37,20,146.67885629998636,,,,,,,,,,,,,,,146.66397899997537,146.67885629998636,146.67885629998636,147.17872159997933,147.662400399975,None,0,147.67875599997933,,,,,,,,,,,,,,,4,001,2026-04-21_13h29.04.554,0back,,2025.1.1,59.56291541082484,2026-04-21 13h29.11.100489 +0200,
38,38,0,R,A,return,1.883559999987483,None,None,0,,,,,,,,0,0,0,0,0,2,2,1,0,38,38,36,147.67875599997933,,,,,,,,,,,,,,,147.663696899981,147.67875599997933,147.67875599997933,148.17875809999532,148.6626239999896,None,0,148.67890239998815,,,,,,,,,,,,,,,4,001,2026-04-21_13h29.04.554,0back,,2025.1.1,59.56291541082484,2026-04-21 13h29.11.100489 +0200,
39,39,0,R,M,return,1.883559999987483,None,None,0,,,,,,,,0,0,0,0,0,2,2,1,0,39,39,8,148.67890239998815,,,,,,,,,,,,,,,148.6638893999916,148.67890239998815,148.67890239998815,149.1786887999915,149.6633770999906,None,0,,,,,,,,,,,,,,,,4,001,2026-04-21_13h29.04.554,0back,,2025.1.1,59.56291541082484,2026-04-21 13h29.11.100489 +0200,
40,40,0,R,Y,return,1.883559999987483,None,None,0,,,,,,,,0,0,0,0,0,2,2,1,0,40,40,42,149.67876579999574,,,,,,,,,,,,,,,149.66461879998678,149.67876579999574,149.67876579999574,150.1788152999943,150.66231729998253,None,0,150.67880279998644,,,,,,,,,,,,,,,4,001,2026-04-21_13h29.04.554,0back,,2025.1.1,59.56291541082484,2026-04-21 13h29.11.100489 +0200,
41,41,0,R,M,return,1.883559999987483,None,None,0,,,,,,,,0,0,0,0,0,2,2,1,0,41,41,6,150.67880279998644,,,,,,,,,,,,,,,150.66361499999766,150.67880279998644,150.67880279998644,151.17875509997248,151.6623732999724,None,0,151.67884389997926,,,,,,,,,,,,,,,4,001,2026-04-21_13h29.04.554,0back,,2025.1.1,59.56291541082484,2026-04-21 13h29.11.100489 +0200,
42,42,0,R,D,return,1.883559999987483,None,None,0,,,,,,,,0,0,0,0,0,2,2,1,0,42,42,48,151.67884389997926,,,,,,,,,,,,,,,151.6635535999958,151.67884389997926,151.67884389997926,152.17894069998874,152.6623538999993,None,0,152.67888499997207,,,,,,,,,,,,,,,4,001,2026-04-21_13h29.04.554,0back,,2025.1.1,59.56291541082484,2026-04-21 13h29.11.100489 +0200,
43,43,0,R,I,return,1.883559999987483,None,None,0,,,,,,,,0,0,0,0,0,2,2,1,0,43,43,44,152.67888499997207,,,,,,,,,,,,,,,152.66374489999725,152.67888499997207,152.67888499997207,153.1788644999906,153.66236199997365,None,0,153.67882469997858,,,,,,,,,,,,,,,4,001,2026-04-21_13h29.04.554,0back,,2025.1.1,59.56291541082484,2026-04-21 13h29.11.100489 +0200,
44,44,0,R,A,return,1.883559999987483,None,None,0,,,,,,,,0,0,0,0,0,2,2,1,0,44,44,38,153.67882469997858,,,,,,,,,,,,,,,153.66362459998345,153.67882469997858,153.67882469997858,154.17874719999963,154.66273799998453,None,0,154.67881159999524,,,,,,,,,,,,,,,4,001,2026-04-21_13h29.04.554,0back,,2025.1.1,59.56291541082484,2026-04-21 13h29.11.100489 +0200,
45,45,0,R,C,return,1.883559999987483,None,None,0,,,,,,,,0,0,0,0,0,2,2,1,0,45,45,49,154.67881159999524,,,,,,,,,,,,,,,154.6644510999904,154.67881159999524,154.67881159999524,155.1788225999917,155.6626058999973,None,0,155.67877259998932,,,,,,,,,,,,,,,4,001,2026-04-21_13h29.04.554,0back,,2025.1.1,59.56291541082484,2026-04-21 13h29.11.100489 +0200,
46,46,0,R,A,return,1.883559999987483,None,None,0,,,,,,,,0,0,0,0,0,2,2,1,0,46,46,29,155.67877259998932,,,,,,,,,,,,,,,155.66388409998035,155.67877259998932,155.67877259998932,156.17877739999676,156.66272429999663,None,0,156.67878359998576,,,,,,,,,,,,,,,4,001,2026-04-21_13h29.04.554,0back,,2025.1.1,59.56291541082484,2026-04-21 13h29.11.100489 +0200,
47,47,0,R,R,return,1.883559999987483,None,space,1,0.5348386999976356,0.18340509998961352,,,,,,0,0,0,0,0,2,2,1,0,47,47,17,156.67878359998576,,,,,,,,,,,,,,,156.66507559997262,156.67878359998576,156.67878359998576,157.17873839999083,157.66253879998112,space,1,157.67914849999943,0.5348386999976356,0.18340509998961352,,,,,,,,,,,,,4,001,2026-04-21_13h29.04.554,0back,,2025.1.1,59.56291541082484,2026-04-21 13h29.11.100489 +0200,
48,48,0,R,M,return,1.883559999987483,None,None,0,,,,,,,,0,0,0,0,0,2,2,1,0,48,48,1,157.67914849999943,,,,,,,,,,,,,,,157.66390499999397,157.67914849999943,157.67914849999943,158.1787749999785,158.66233329998795,None,0,158.67917329998454,,,,,,,,,,,,,,,4,001,2026-04-21_13h29.04.554,0back,,2025.1.1,59.56291541082484,2026-04-21 13h29.11.100489 +0200,
49,49,0,R,A,return,1.883559999987483,None,None,0,,,,,,,,0,0,0,0,0,2,2,1,0,49,49,35,158.67917329998454,,,,,,,,,,,,,,,158.66361969997524,158.67917329998454,158.67917329998454,159.1788473999768,159.6628790999821,None,0,,,,,,,,,,,,,,,,4,001,2026-04-21_13h29.04.554,0back,,2025.1.1,59.56291541082484,2026-04-21 13h29.11.100489 +0200,
2,2,0,R,,return,1.883559999987483,None,,,,,,,,,,0,0,0,0,0,2,2,1,,,,,,,,,,,,,,,,,,,,,,,,,,,,,,,,,,,,,,,,,,4,001,2026-04-21_13h29.04.554,0back,,2025.1.1,59.56291541082484,2026-04-21 13h29.11.100489 +0200,
0,0,0,A,R,return,2.0944066000229213,None,None,0,,,,,,,,0,0,0,0,0,3,3,2,0,0,0,15,161.79556619998766,,,,,,159.66921849999926,159.67891499999678,159.67891499999678,159.67891499999678,159.67891499999678,161.77978179999627,return,2.0944066000229213,None,161.78531569999177,161.79556619998766,161.79556619998766,162.29558739997447,162.77886069999659,None,0,162.79693779998343,,,,,,,,,,,,,,,4,001,2026-04-21_13h29.04.554,0back,,2025.1.1,59.56291541082484,2026-04-21 13h29.11.100489 +0200,
1,1,0,A,A,return,2.0944066000229213,None,space,1,0.6327001000172459,0.14344169999822043,,,,,,0,0,0,0,0,3,3,2,0,1,1,36,162.79693779998343,,,,,,,,,,,,,,,162.78117969998857,162.79693779998343,162.79693779998343,163.31233719998272,163.7959885999735,space,1,,0.6327001000172459,0.14344169999822043,,,,,,,,,,,,,4,001,2026-04-21_13h29.04.554,0back,,2025.1.1,59.56291541082484,2026-04-21 13h29.11.100489 +0200,
2,2,0,A,A,return,2.0944066000229213,None,space,1,0.7860648999921978,0.13466480001807213,,,,,,0,0,0,0,0,3,3,2,0,2,2,29,163.81296839998686,,,,,,,,,,,,,,,163.79702009999892,163.81296839998686,163.81296839998686,164.3122989999829,164.7958172999788,space,1,,0.7860648999921978,0.13466480001807213,,,,,,,,,,,,,4,001,2026-04-21_13h29.04.554,0back,,2025.1.1,59.56291541082484,2026-04-21 13h29.11.100489 +0200,
3,3,0,A,A,return,2.0944066000229213,None,space,1,0.5842541999882087,0.15989010001067072,,,,,,0,0,0,0,0,3,3,2,0,3,3,33,164.8130831999879,,,,,,,,,,,,,,,164.7967021999939,164.8130831999879,164.8130831999879,165.31223749998026,165.79591429998982,space,1,,0.5842541999882087,0.15989010001067072,,,,,,,,,,,,,4,001,2026-04-21_13h29.04.554,0back,,2025.1.1,59.56291541082484,2026-04-21 13h29.11.100489 +0200,
4,4,0,A,R,return,2.0944066000229213,None,None,0,,,,,,,,0,0,0,0,0,3,3,2,0,4,4,9,165.8124042999989,,,,,,,,,,,,,,,165.7975851999945,165.8124042999989,165.8124042999989,166.31230059999507,166.79590909997933,None,0,,,,,,,,,,,,,,,,4,001,2026-04-21_13h29.04.554,0back,,2025.1.1,59.56291541082484,2026-04-21 13h29.11.100489 +0200,
5,5,0,A,N,return,2.0944066000229213,None,None,0,,,,,,,,0,0,0,0,0,3,3,2,0,5,5,28,166.81226409997907,,,,,,,,,,,,,,,166.79798019997543,166.81226409997907,166.81226409997907,167.31275749998167,167.7959308999998,None,0,,,,,,,,,,,,,,,,4,001,2026-04-21_13h29.04.554,0back,,2025.1.1,59.56291541082484,2026-04-21 13h29.11.100489 +0200,
6,6,0,A,N,return,2.0944066000229213,None,None,0,,,,,,,,0,0,0,0,0,3,3,2,0,6,6,19,167.8124603999895,,,,,,,,,,,,,,,167.79609589997563,167.8124603999895,167.8124603999895,168.31260509998538,168.79681849997723,None,0,,,,,,,,,,,,,,,,4,001,2026-04-21_13h29.04.554,0back,,2025.1.1,59.56291541082484,2026-04-21 13h29.11.100489 +0200,
7,7,0,A,N,return,2.0944066000229213,None,None,0,,,,,,,,0,0,0,0,0,3,3,2,0,7,7,27,168.81217639998067,,,,,,,,,,,,,,,168.79695530000026,168.81217639998067,168.81217639998067,169.31232099997578,169.79581569999573,None,0,,,,,,,,,,,,,,,,4,001,2026-04-21_13h29.04.554,0back,,2025.1.1,59.56291541082484,2026-04-21 13h29.11.100489 +0200,
8,8,0,A,N,return,2.0944066000229213,None,None,0,,,,,,,,0,0,0,0,0,3,3,2,0,8,8,22,169.8122960999899,,,,,,,,,,,,,,,169.79596179997316,169.8122960999899,169.8122960999899,170.31263380000019,170.7959207999811,None,0,,,,,,,,,,,,,,,,4,001,2026-04-21_13h29.04.554,0back,,2025.1.1,59.56291541082484,2026-04-21 13h29.11.100489 +0200,
9,9,0,A,Z,return,2.0944066000229213,None,None,0,,,,,,,,0,0,0,0,0,3,3,2,0,9,9,39,170.81229679999524,,,,,,,,,,,,,,,170.7976555999776,170.81229679999524,170.81229679999524,171.31229059997713,171.7960964999802,None,0,,,,,,,,,,,,,,,,4,001,2026-04-21_13h29.04.554,0back,,2025.1.1,59.56291541082484,2026-04-21 13h29.11.100489 +0200,
10,10,0,A,D,return,2.0944066000229213,None,None,0,,,,,,,,0,0,0,0,0,3,3,2,0,10,10,48,171.8123488999845,,,,,,,,,,,,,,,171.79757369999425,171.8123488999845,171.8123488999845,172.31229089997942,172.79599149999558,None,0,,,,,,,,,,,,,,,,4,001,2026-04-21_13h29.04.554,0back,,2025.1.1,59.56291541082484,2026-04-21 13h29.11.100489 +0200,
11,11,0,A,R,return,2.0944066000229213,None,None,0,,,,,,,,0,0,0,0,0,3,3,2,0,11,11,16,172.81237179998425,,,,,,,,,,,,,,,172.797540199972,172.81237179998425,172.81237179998425,173.31276849997812,173.79595639999025,None,0,,,,,,,,,,,,,,,,4,001,2026-04-21_13h29.04.554,0back,,2025.1.1,59.56291541082484,2026-04-21 13h29.11.100489 +0200,
12,12,0,A,R,return,2.0944066000229213,None,None,0,,,,,,,,0,0,0,0,0,3,3,2,0,12,12,13,173.81249630000093,,,,,,,,,,,,,,,173.79614189997665,173.81249630000093,173.81249630000093,174.31230459999642,174.7961331999977,None,0,,,,,,,,,,,,,,,,4,001,2026-04-21_13h29.04.554,0back,,2025.1.1,59.56291541082484,2026-04-21 13h29.11.100489 +0200,
13,13,0,A,Y,return,2.0944066000229213,None,None,0,,,,,,,,0,0,0,0,0,3,3,2,0,13,13,42,174.81258489997708,,,,,,,,,,,,,,,174.79770669998834,174.81258489997708,174.81258489997708,175.31244449998485,175.79582659999141,None,0,,,,,,,,,,,,,,,,4,001,2026-04-21_13h29.04.554,0back,,2025.1.1,59.56291541082484,2026-04-21 13h29.11.100489 +0200,
14,14,0,A,R,return,2.0944066000229213,None,None,0,,,,,,,,0,0,0,0,0,3,3,2,0,14,14,18,175.8124414999911,,,,,,,,,,,,,,,175.7972050999815,175.8124414999911,175.8124414999911,176.31256939997547,176.79589609999675,None,0,,,,,,,,,,,,,,,,4,001,2026-04-21_13h29.04.554,0back,,2025.1.1,59.56291541082484,2026-04-21 13h29.11.100489 +0200,
15,15,0,A,R,return,2.0944066000229213,None,None,0,,,,,,,,0,0,0,0,0,3,3,2,0,15,15,14,176.81231649999972,,,,,,,,,,,,,,,176.7960832999961,176.81231649999972,176.81231649999972,177.31270219999715,177.79580119997263,None,0,,,,,,,,,,,,,,,,4,001,2026-04-21_13h29.04.554,0back,,2025.1.1,59.56291541082484,2026-04-21 13h29.11.100489 +0200,
16,16,0,A,R,return,2.0944066000229213,None,None,0,,,,,,,,0,0,0,0,0,3,3,2,0,16,16,17,177.81246309998096,,,,,,,,,,,,,,,177.79594859998906,177.81246309998096,177.81246309998096,178.3123444999801,178.79606979998061,None,0,,,,,,,,,,,,,,,,4,001,2026-04-21_13h29.04.554,0back,,2025.1.1,59.56291541082484,2026-04-21 13h29.11.100489 +0200,
17,17,0,A,N,return,2.0944066000229213,None,None,0,,,,,,,,0,0,0,0,0,3,3,2,0,17,17,25,178.81241989997216,,,,,,,,,,,,,,,178.79845439997735,178.81241989997216,178.81241989997216,179.31243899997207,179.79631259999587,None,0,,,,,,,,,,,,,,,,4,001,2026-04-21_13h29.04.554,0back,,2025.1.1,59.56291541082484,2026-04-21 13h29.11.100489 +0200,
18,18,0,A,C,return,2.0944066000229213,None,None,0,,,,,,,,0,0,0,0,0,3,3,2,0,18,18,49,179.81301429998712,,,,,,,,,,,,,,,179.797834099998,179.81301429998712,179.81301429998712,180.3129550999729,180.7964102999831,None,0,,,,,,,,,,,,,,,,4,001,2026-04-21_13h29.04.554,0back,,2025.1.1,59.56291541082484,2026-04-21 13h29.11.100489 +0200,
19,19,0,A,P,return,2.0944066000229213,None,None,0,,,,,,,,0,0,0,0,0,3,3,2,0,19,19,46,180.81241459999,,,,,,,,,,,,,,,180.79781939997338,180.81241459999,180.81241459999,181.31234019997646,181.7957766999898,None,0,,,,,,,,,,,,,,,,4,001,2026-04-21_13h29.04.554,0back,,2025.1.1,59.56291541082484,2026-04-21 13h29.11.100489 +0200,
20,20,0,A,M,return,2.0944066000229213,None,None,0,,,,,,,,0,0,0,0,0,3,3,2,0,20,20,6,181.81233319998137,,,,,,,,,,,,,,,181.79730979999295,181.81233319998137,181.81233319998137,182.3122784999723,182.79585229998338,None,0,,,,,,,,,,,,,,,,4,001,2026-04-21_13h29.04.554,0back,,2025.1.1,59.56291541082484,2026-04-21 13h29.11.100489 +0200,
21,21,0,A,A,return,2.0944066000229213,None,space,1,0.5378169000032358,0.1429583000135608,,,,,,0,0,0,0,0,3,3,2,0,21,21,34,182.81229499998153,,,,,,,,,,,,,,,182.79818230000092,182.81229499998153,182.81229499998153,183.31249389998266,183.79581099998904,space,1,,0.5378169000032358,0.1429583000135608,,,,,,,,,,,,,4,001,2026-04-21_13h29.04.554,0back,,2025.1.1,59.56291541082484,2026-04-21 13h29.11.100489 +0200,
22,22,0,A,A,return,2.0944066000229213,None,space,1,0.5874543999962043,0.14212760000373237,,,,,,0,0,0,0,0,3,3,2,0,22,22,38,183.81233239997528,,,,,,,,,,,,,,,183.79695189997437,183.81233239997528,183.81233239997528,184.31227840000065,184.7955994999793,space,1,,0.5874543999962043,0.14212760000373237,,,,,,,,,,,,,4,001,2026-04-21_13h29.04.554,0back,,2025.1.1,59.56291541082484,2026-04-21 13h29.11.100489 +0200,
23,23,0,A,Q,return,2.0944066000229213,None,None,0,,,,,,,,0,0,0,0,0,3,3,2,0,23,23,47,184.812270800001,,,,,,,,,,,,,,,184.7968193999841,184.812270800001,184.812270800001,185.31241289997706,185.79576179999276,None,0,,,,,,,,,,,,,,,,4,001,2026-04-21_13h29.04.554,0back,,2025.1.1,59.56291541082484,2026-04-21 13h29.11.100489 +0200,
24,24,0,A,R,return,2.0944066000229213,None,None,0,,,,,,,,0,0,0,0,0,3,3,2,0,24,24,11,185.81242269999348,,,,,,,,,,,,,,,185.7971706999815,185.81242269999348,185.81242269999348,186.31260899998597,186.79577259998769,None,0,,,,,,,,,,,,,,,,4,001,2026-04-21_13h29.04.554,0back,,2025.1.1,59.56291541082484,2026-04-21 13h29.11.100489 +0200,
25,25,0,A,U,return,2.0944066000229213,None,None,0,,,,,,,,0,0,0,0,0,3,3,2,0,25,25,43,186.8124031999905,,,,,,,,,,,,,,,186.79732969999895,186.8124031999905,186.8124031999905,187.31232989998534,187.79571249999572,None,0,,,,,,,,,,,,,,,,4,001,2026-04-21_13h29.04.554,0back,,2025.1.1,59.56291541082484,2026-04-21 13h29.11.100489 +0200,
26,26,0,A,E,return,2.0944066000229213,None,None,0,,,,,,,,0,0,0,0,0,3,3,2,0,26,26,40,187.81235699998797,,,,,,,,,,,,,,,187.7974076999817,187.81235699998797,187.81235699998797,188.3125320999825,188.79575309998472,None,0,,,,,,,,,,,,,,,,4,001,2026-04-21_13h29.04.554,0back,,2025.1.1,59.56291541082484,2026-04-21 13h29.11.100489 +0200,
27,27,0,A,M,return,2.0944066000229213,None,None,0,,,,,,,,0,0,0,0,0,3,3,2,0,27,27,7,188.81235519997426,,,,,,,,,,,,,,,188.79700999998022,188.81235519997426,188.81235519997426,189.3131118999736,189.7956995999848,None,0,,,,,,,,,,,,,,,,4,001,2026-04-21_13h29.04.554,0back,,2025.1.1,59.56291541082484,2026-04-21 13h29.11.100489 +0200,
28,28,0,A,A,return,2.0944066000229213,None,space,1,0.8259488000185229,0.13495599999441765,,,,,,0,0,0,0,0,3,3,2,0,28,28,35,189.81270819998463,,,,,,,,,,,,,,,189.79797669997788,189.81270819998463,189.81270819998463,190.3130797999911,190.79618249999476,space,1,,0.8259488000185229,0.13495599999441765,,,,,,,,,,,,,4,001,2026-04-21_13h29.04.554,0back,,2025.1.1,59.56291541082484,2026-04-21 13h29.11.100489 +0200,
29,29,0,A,A,return,2.0944066000229213,None,space,1,0.5303332999756094,0.14268869999796152,,,,,,0,0,0,0,0,3,3,2,0,29,29,37,190.81287689998862,,,,,,,,,,,,,,,190.79735139998957,190.81287689998862,190.81287689998862,191.312683199998,191.79598479997367,space,1,,0.5303332999756094,0.14268869999796152,,,,,,,,,,,,,4,001,2026-04-21_13h29.04.554,0back,,2025.1.1,59.56291541082484,2026-04-21 13h29.11.100489 +0200,
30,30,0,A,M,return,2.0944066000229213,None,None,0,,,,,,,,0,0,0,0,0,3,3,2,0,30,30,0,191.81232099997578,,,,,,,,,,,,,,,191.79812639998272,191.81232099997578,191.81232099997578,192.31255629999214,192.79607899999246,None,0,,,,,,,,,,,,,,,,4,001,2026-04-21_13h29.04.554,0back,,2025.1.1,59.56291541082484,2026-04-21 13h29.11.100489 +0200,
31,31,0,A,M,return,2.0944066000229213,None,None,0,,,,,,,,0,0,0,0,0,3,3,2,0,31,31,4,192.81232239998644,,,,,,,,,,,,,,,192.79623249999713,192.81232239998644,192.81232239998644,193.31257149999146,193.79594709997764,None,0,,,,,,,,,,,,,,,,4,001,2026-04-21_13h29.04.554,0back,,2025.1.1,59.56291541082484,2026-04-21 13h29.11.100489 +0200,
32,32,0,A,A,return,2.0944066000229213,None,space,1,0.5700598999974318,0.19120510001084767,,,,,,0,0,0,0,0,3,3,2,0,32,32,30,193.81249139999272,,,,,,,,,,,,,,,193.79838919997565,193.81249139999272,193.81249139999272,194.31289370000013,194.7960938999895,space,1,,0.5700598999974318,0.19120510001084767,,,,,,,,,,,,,4,001,2026-04-21_13h29.04.554,0back,,2025.1.1,59.56291541082484,2026-04-21 13h29.11.100489 +0200,
33,33,0,A,M,return,2.0944066000229213,None,None,0,,,,,,,,0,0,0,0,0,3,3,2,0,33,33,3,194.81314539999585,,,,,,,,,,,,,,,194.7975013999967,194.81314539999585,194.81314539999585,195.312343699974,195.79598969998187,None,0,,,,,,,,,,,,,,,,4,001,2026-04-21_13h29.04.554,0back,,2025.1.1,59.56291541082484,2026-04-21 13h29.11.100489 +0200,
34,34,0,A,M,return,2.0944066000229213,None,None,0,,,,,,,,0,0,0,0,0,3,3,2,0,34,34,1,195.8123431999993,,,,,,,,,,,,,,,195.79616079997504,195.8123431999993,195.8123431999993,196.3123765999917,196.79587689999607,None,0,,,,,,,,,,,,,,,,4,001,2026-04-21_13h29.04.554,0back,,2025.1.1,59.56291541082484,2026-04-21 13h29.11.100489 +0200,
35,35,0,A,M,return,2.0944066000229213,None,None,0,,,,,,,,0,0,0,0,0,3,3,2,0,35,35,8,196.81282139997347,,,,,,,,,,,,,,,196.79623969999375,196.81282139997347,196.81282139997347,197.31225429999176,197.79641979999724,None,0,,,,,,,,,,,,,,,,4,001,2026-04-21_13h29.04.554,0back,,2025.1.1,59.56291541082484,2026-04-21 13h29.11.100489 +0200,
36,36,0,A,O,return,2.0944066000229213,None,None,0,,,,,,,,0,0,0,0,0,3,3,2,0,36,36,45,197.8124575999973,,,,,,,,,,,,,,,197.79829079998308,197.8124575999973,197.8124575999973,198.31249699997716,198.79600029997528,None,0,,,,,,,,,,,,,,,,4,001,2026-04-21_13h29.04.554,0back,,2025.1.1,59.56291541082484,2026-04-21 13h29.11.100489 +0200,
37,37,0,A,T,return,2.0944066000229213,None,None,0,,,,,,,,0,0,0,0,0,3,3,2,0,37,37,41,198.81300289998762,,,,,,,,,,,,,,,198.79753799998434,198.81300289998762,198.81300289998762,199.31233939999947,199.79573749998235,None,0,,,,,,,,,,,,,,,,4,001,2026-04-21_13h29.04.554,0back,,2025.1.1,59.56291541082484,2026-04-21 13h29.11.100489 +0200,
38,38,0,A,N,return,2.0944066000229213,None,None,0,,,,,,,,0,0,0,0,0,3,3,2,0,38,38,23,199.81264519999968,,,,,,,,,,,,,,,199.7974402999971,199.81264519999968,199.81264519999968,200.31224659999134,200.79568879998988,None,0,,,,,,,,,,,,,,,,4,001,2026-04-21_13h29.04.554,0back,,2025.1.1,59.56291541082484,2026-04-21 13h29.11.100489 +0200,
39,39,0,A,A,return,2.0944066000229213,None,space,1,0.44101370000862516,0.16657580001628958,,,,,,0,0,0,0,0,3,3,2,0,39,39,32,200.8135501999932,,,,,,,,,,,,,,,200.79778999998234,200.8135501999932,200.8135501999932,201.32887019999907,201.79578899999615,space,1,,0.44101370000862516,0.16657580001628958,,,,,,,,,,,,,4,001,2026-04-21_13h29.04.554,0back,,2025.1.1,59.56291541082484,2026-04-21 13h29.11.100489 +0200,
40,40,0,A,N,return,2.0944066000229213,None,None,0,,,,,,,,0,0,0,0,0,3,3,2,0,40,40,21,201.81229939998593,,,,,,,,,,,,,,,201.7973220999993,201.81229939998593,201.81229939998593,202.31246209997335,202.79568219999783,None,0,,,,,,,,,,,,,,,,4,001,2026-04-21_13h29.04.554,0back,,2025.1.1,59.56291541082484,2026-04-21 13h29.11.100489 +0200,
41,41,0,A,I,return,2.0944066000229213,None,None,0,,,,,,,,0,0,0,0,0,3,3,2,0,41,41,44,202.81233269997756,,,,,,,,,,,,,,,202.7976154999924,202.81233269997756,202.81233269997756,203.31239189999178,203.79568349997862,None,0,,,,,,,,,,,,,,,,4,001,2026-04-21_13h29.04.554,0back,,2025.1.1,59.56291541082484,2026-04-21 13h29.11.100489 +0200,
42,42,0,A,N,return,2.0944066000229213,None,None,0,,,,,,,,0,0,0,0,0,3,3,2,0,42,42,26,203.81227329999092,,,,,,,,,,,,,,,203.79705269998522,203.81227329999092,203.81227329999092,204.31224909998127,204.7956912999798,None,0,,,,,,,,,,,,,,,,4,001,2026-04-21_13h29.04.554,0back,,2025.1.1,59.56291541082484,2026-04-21 13h29.11.100489 +0200,
43,43,0,A,N,return,2.0944066000229213,None,None,0,,,,,,,,0,0,0,0,0,3,3,2,0,43,43,24,204.8123338999867,,,,,,,,,,,,,,,204.79592629999388,204.8123338999867,204.8123338999867,205.31282120000105,205.79567689998657,None,0,,,,,,,,,,,,,,,,4,001,2026-04-21_13h29.04.554,0back,,2025.1.1,59.56291541082484,2026-04-21 13h29.11.100489 +0200,
44,44,0,A,M,return,2.0944066000229213,None,None,0,,,,,,,,0,0,0,0,0,3,3,2,0,44,44,5,205.8123276999977,,,,,,,,,,,,,,,205.79695299998275,205.8123276999977,205.8123276999977,206.31226459998288,206.7958501999965,None,0,,,,,,,,,,,,,,,,4,001,2026-04-21_13h29.04.554,0back,,2025.1.1,59.56291541082484,2026-04-21 13h29.11.100489 +0200,
45,45,0,A,R,return,2.0944066000229213,None,None,0,,,,,,,,0,0,0,0,0,3,3,2,0,45,45,10,206.81226589999278,,,,,,,,,,,,,,,206.79733439997653,206.81226589999278,206.81226589999278,207.31242569998722,207.79630279997946,None,0,,,,,,,,,,,,,,,,4,001,2026-04-21_13h29.04.554,0back,,2025.1.1,59.56291541082484,2026-04-21 13h29.11.100489 +0200,
46,46,0,A,A,return,2.0944066000229213,None,space,1,0.6250208000128623,0.15234460000647232,,,,,,0,0,0,0,0,3,3,2,0,46,46,31,207.81268229999114,,,,,,,,,,,,,,,207.79858909998438,207.81268229999114,207.81268229999114,208.31285789998947,208.79571839998243,space,1,,0.6250208000128623,0.15234460000647232,,,,,,,,,,,,,4,001,2026-04-21_13h29.04.554,0back,,2025.1.1,59.56291541082484,2026-04-21 13h29.11.100489 +0200,
47,47,0,A,N,return,2.0944066000229213,None,None,0,,,,,,,,0,0,0,0,0,3,3,2,0,47,47,20,208.8123814999999,,,,,,,,,,,,,,,208.7971486999886,208.8123814999999,208.8123814999999,209.31240159997833,209.79577989998506,None,0,,,,,,,,,,,,,,,,4,001,2026-04-21_13h29.04.554,0back,,2025.1.1,59.56291541082484,2026-04-21 13h29.11.100489 +0200,
48,48,0,A,M,return,2.0944066000229213,None,None,0,,,,,,,,0,0,0,0,0,3,3,2,0,48,48,2,209.81233549999888,,,,,,,,,,,,,,,209.79722959999344,209.81233549999888,209.81233549999888,210.31242709999788,210.7970151999907,None,0,,,,,,,,,,,,,,,,4,001,2026-04-21_13h29.04.554,0back,,2025.1.1,59.56291541082484,2026-04-21 13h29.11.100489 +0200,
49,49,0,A,R,return,2.0944066000229213,None,None,0,,,,,,,,0,0,0,0,0,3,3,2,0,49,49,12,210.8123571999895,,,,,,,,,,,,,,,210.7986073999782,210.8123571999895,210.8123571999895,211.3122828999767,211.79589249999844,None,0,,,,,,,,,,,,,,,,4,001,2026-04-21_13h29.04.554,0back,,2025.1.1,59.56291541082484,2026-04-21 13h29.11.100489 +0200,
3,3,0,A,,return,2.0944066000229213,None,,,,,,,,,,0,0,0,0,0,3,3,2,,,,,,,,,,,,,,,,,,,,,,,,,,,,,,,,,,,,,,,,,,4,001,2026-04-21_13h29.04.554,0back,,2025.1.1,59.56291541082484,2026-04-21 13h29.11.100489 +0200,
0,0,0,,,,,,,,,,3.0,9.619893800001591,1,[10.616307199990842],[10.61631889999262],0,0,0,0,,,,,,,,,,,,,,,,,,,,,,,,,,,,,,,,,,211.80854359999648,211.84361189999618,211.84361189999618,211.84361189999618,211.84361189999618,211.84361189999618,222.4615234999801,3.0,9.619893800001591,1,[10.616307199990842],[10.61631889999262],4,001,2026-04-21_13h29.04.554,0back,,2025.1.1,59.56291541082484,2026-04-21 13h29.11.100489 +0200,
0,0,0,M,A,return,7.435994900006335,None,None,0,,,,,,,,1,0,1,0,0,0,0,0,0,0,0,33,229.92906669998774,,,,,,222.47007679997478,222.47346289997222,222.47346289997222,222.47346289997222,222.47346289997222,229.91265799998655,return,7.435994900006335,None,229.91899469998316,229.92906669998774,229.92906669998774,230.42940569997882,230.9125121999823,None,0,230.92901049999637,,,,,,,,,,,,,,,4,001,2026-04-21_13h29.04.554,0back,,2025.1.1,59.56291541082484,2026-04-21 13h29.11.100489 +0200,
1,1,0,M,R,return,7.435994900006335,None,None,0,,,,,,,,1,0,1,0,0,0,0,0,0,1,1,12,230.92901049999637,,,,,,,,,,,,,,,230.9139051999955,230.92901049999637,230.92901049999637,231.4295725999982,231.9126676999731,None,0,231.9294129999762,,,,,,,,,,,,,,,4,001,2026-04-21_13h29.04.554,0back,,2025.1.1,59.56291541082484,2026-04-21 13h29.11.100489 +0200,
2,2,0,M,R,return,7.435994900006335,None,None,0,,,,,,,,1,0,1,0,0,0,0,0,0,2,2,9,231.9294129999762,,,,,,,,,,,,,,,231.91298239998287,231.9294129999762,231.9294129999762,232.42896469999687,232.9124702999834,None,0,232.92902369998046,,,,,,,,,,,,,,,4,001,2026-04-21_13h29.04.554,0back,,2025.1.1,59.56291541082484,2026-04-21 13h29.11.100489 +0200,
3,3,0,M,N,return,7.435994900006335,None,None,0,,,,,,,,1,0,1,0,0,0,0,0,0,3,3,21,232.92902369998046,,,,,,,,,,,,,,,232.91411419998622,232.92902369998046,232.92902369998046,233.42941069998778,233.9126650999824,None,0,233.9290773999819,,,,,,,,,,,,,,,4,001,2026-04-21_13h29.04.554,0back,,2025.1.1,59.56291541082484,2026-04-21 13h29.11.100489 +0200,
4,4,0,M,N,return,7.435994900006335,None,None,0,,,,,,,,1,0,1,0,0,0,0,0,0,4,4,23,233.9290773999819,,,,,,,,,,,,,,,233.91284589999123,233.9290773999819,233.9290773999819,234.4298191999842,234.91279299999587,None,0,234.9294200000004,,,,,,,,,,,,,,,4,001,2026-04-21_13h29.04.554,0back,,2025.1.1,59.56291541082484,2026-04-21 13h29.11.100489 +0200,
5,5,0,M,T,return,7.435994900006335,None,None,0,,,,,,,,1,0,1,0,0,0,0,0,0,5,5,41,234.9294200000004,,,,,,,,,,,,,,,234.9143594999914,234.9294200000004,234.9294200000004,235.42943079999532,235.91267719998723,None,0,235.92906779999612,,,,,,,,,,,,,,,4,001,2026-04-21_13h29.04.554,0back,,2025.1.1,59.56291541082484,2026-04-21 13h29.11.100489 +0200,
6,6,0,M,M,return,7.435994900006335,None,space,1,0.4922509999887552,0.1515642000013031,,,,,,1,0,1,0,0,0,0,0,0,6,6,2,235.92906779999612,,,,,,,,,,,,,,,235.9149809999799,235.92906779999612,235.92906779999612,236.42901139997412,236.91268489998765,space,1,236.92957589999423,0.4922509999887552,0.1515642000013031,,,,,,,,,,,,,4,001,2026-04-21_13h29.04.554,0back,,2025.1.1,59.56291541082484,2026-04-21 13h29.11.100489 +0200,
7,7,0,M,M,return,7.435994900006335,None,space,1,0.7797641000070143,0.15980209998087958,,,,,,1,0,1,0,0,0,0,0,0,7,7,1,236.92957589999423,,,,,,,,,,,,,,,236.91367639999953,236.92957589999423,236.92957589999423,237.42906199998106,237.9126575999835,space,1,237.92927489997237,0.7797641000070143,0.15980209998087958,,,,,,,,,,,,,4,001,2026-04-21_13h29.04.554,0back,,2025.1.1,59.56291541082484,2026-04-21 13h29.11.100489 +0200,
8,8,0,M,M,return,7.435994900006335,None,space,1,0.5398881000000983,0.14399240000057034,,,,,,1,0,1,0,0,0,0,0,0,8,8,8,237.92927489997237,,,,,,,,,,,,,,,237.9137703999877,237.92927489997237,237.92927489997237,238.42908839997835,238.91358599998057,space,1,,0.5398881000000983,0.14399240000057034,,,,,,,,,,,,,4,001,2026-04-21_13h29.04.554,0back,,2025.1.1,59.56291541082484,2026-04-21 13h29.11.100489 +0200,
9,9,0,M,E,return,7.435994900006335,None,None,0,,,,,,,,1,0,1,0,0,0,0,0,0,9,9,40,238.9290111999726,,,,,,,,,,,,,,,238.91489279997768,238.9290111999726,238.9290111999726,239.42901329998858,239.91269999998622,None,0,239.92900269999518,,,,,,,,,,,,,,,4,001,2026-04-21_13h29.04.554,0back,,2025.1.1,59.56291541082484,2026-04-21 13h29.11.100489 +0200,
10,10,0,M,R,return,7.435994900006335,None,None,0,,,,,,,,1,0,1,0,0,0,0,0,0,10,10,17,239.92900269999518,,,,,,,,,,,,,,,239.91387039999245,239.92900269999518,239.92900269999518,240.42938359998516,240.9127566999814,None,0,240.9292310999881,,,,,,,,,,,,,,,4,001,2026-04-21_13h29.04.554,0back,,2025.1.1,59.56291541082484,2026-04-21 13h29.11.100489 +0200,
11,11,0,M,U,return,7.435994900006335,None,None,0,,,,,,,,1,0,1,0,0,0,0,0,0,11,11,43,240.9292310999881,,,,,,,,,,,,,,,240.91507709998405,240.9292310999881,240.9292310999881,241.42901989998063,241.91276349997497,None,0,241.929015599977,,,,,,,,,,,,,,,4,001,2026-04-21_13h29.04.554,0back,,2025.1.1,59.56291541082484,2026-04-21 13h29.11.100489 +0200,
12,12,0,M,A,return,7.435994900006335,None,None,0,,,,,,,,1,0,1,0,0,0,0,0,0,12,12,37,241.929015599977,,,,,,,,,,,,,,,241.91403099999297,241.929015599977,241.929015599977,242.4293161999958,242.91233899997314,None,0,242.92912519999663,,,,,,,,,,,,,,,4,001,2026-04-21_13h29.04.554,0back,,2025.1.1,59.56291541082484,2026-04-21 13h29.11.100489 +0200,
13,13,0,M,M,return,7.435994900006335,None,space,1,0.6122300999995787,0.18382350000320002,,,,,,1,0,1,0,0,0,0,0,0,13,13,3,242.92912519999663,,,,,,,,,,,,,,,242.91421039999113,242.92912519999663,242.92912519999663,243.42907319997903,243.91248549998272,space,1,243.9297966999875,0.6122300999995787,0.18382350000320002,,,,,,,,,,,,,4,001,2026-04-21_13h29.04.554,0back,,2025.1.1,59.56291541082484,2026-04-21 13h29.11.100489 +0200,
14,14,0,M,N,return,7.435994900006335,None,None,0,,,,,,,,1,0,1,0,0,0,0,0,0,14,14,27,243.9297966999875,,,,,,,,,,,,,,,243.91393199999584,243.9297966999875,243.9297966999875,244.42904289998114,244.91234409998287,None,0,244.9289648999984,,,,,,,,,,,,,,,4,001,2026-04-21_13h29.04.554,0back,,2025.1.1,59.56291541082484,2026-04-21 13h29.11.100489 +0200,
15,15,0,M,N,return,7.435994900006335,None,None,0,,,,,,,,1,0,1,0,0,0,0,0,0,15,15,22,244.9289648999984,,,,,,,,,,,,,,,244.91247799998382,244.9289648999984,244.9289648999984,245.42900619999273,245.9127204999968,None,0,245.9289653999731,,,,,,,,,,,,,,,4,001,2026-04-21_13h29.04.554,0back,,2025.1.1,59.56291541082484,2026-04-21 13h29.11.100489 +0200,
16,16,0,M,Z,return,7.435994900006335,None,None,0,,,,,,,,1,0,1,0,0,0,0,0,0,16,16,39,245.9289653999731,,,,,,,,,,,,,,,245.91422829998191,245.9289653999731,245.9289653999731,246.4290473999863,246.91237419997924,None,0,246.9290187000006,,,,,,,,,,,,,,,4,001,2026-04-21_13h29.04.554,0back,,2025.1.1,59.56291541082484,2026-04-21 13h29.11.100489 +0200,
17,17,0,M,A,return,7.435994900006335,None,None,0,,,,,,,,1,0,1,0,0,0,0,0,0,17,17,32,246.9290187000006,,,,,,,,,,,,,,,246.91358549997676,246.9290187000006,246.9290187000006,247.42907339998055,247.91246629998204,None,0,247.92898209998384,,,,,,,,,,,,,,,4,001,2026-04-21_13h29.04.554,0back,,2025.1.1,59.56291541082484,2026-04-21 13h29.11.100489 +0200,
18,18,0,M,C,return,7.435994900006335,None,None,0,,,,,,,,1,0,1,0,0,0,0,0,0,18,18,49,247.92898209998384,,,,,,,,,,,,,,,247.91367639999953,247.92898209998384,247.92898209998384,248.42899859999306,248.9127349999908,None,0,248.92907549999654,,,,,,,,,,,,,,,4,001,2026-04-21_13h29.04.554,0back,,2025.1.1,59.56291541082484,2026-04-21 13h29.11.100489 +0200,
19,19,0,M,R,return,7.435994900006335,None,None,0,,,,,,,,1,0,1,0,0,0,0,0,0,19,19,10,248.92907549999654,,,,,,,,,,,,,,,248.9141418999934,248.92907549999654,248.92907549999654,249.42900929998723,249.91247949999524,None,0,249.92919319999055,,,,,,,,,,,,,,,4,001,2026-04-21_13h29.04.554,0back,,2025.1.1,59.56291541082484,2026-04-21 13h29.11.100489 +0200,
20,20,0,M,P,return,7.435994900006335,None,None,0,,,,,,,,1,0,1,0,0,0,0,0,0,20,20,46,249.92919319999055,,,,,,,,,,,,,,,249.91373819997534,249.92919319999055,249.92919319999055,250.42909479999798,250.91260409998358,None,0,250.92905339997378,,,,,,,,,,,,,,,4,001,2026-04-21_13h29.04.554,0back,,2025.1.1,59.56291541082484,2026-04-21 13h29.11.100489 +0200,
21,21,0,M,A,return,7.435994900006335,None,None,0,,,,,,,,1,0,1,0,0,0,0,0,0,21,21,38,250.92905339997378,,,,,,,,,,,,,,,250.9139594999724,250.92905339997378,250.92905339997378,251.4289754999918,251.91242309997324,None,0,251.92899379998562,,,,,,,,,,,,,,,4,001,2026-04-21_13h29.04.554,0back,,2025.1.1,59.56291541082484,2026-04-21 13h29.11.100489 +0200,
22,22,0,M,N,return,7.435994900006335,None,None,0,,,,,,,,1,0,1,0,0,0,0,0,0,22,22,20,251.92899379998562,,,,,,,,,,,,,,,251.9136689999723,251.92899379998562,251.92899379998562,252.429037599999,252.9124050999817,None,0,252.9290168999869,,,,,,,,,,,,,,,4,001,2026-04-21_13h29.04.554,0back,,2025.1.1,59.56291541082484,2026-04-21 13h29.11.100489 +0200,
23,23,0,M,A,return,7.435994900006335,None,None,0,,,,,,,,1,0,1,0,0,0,0,0,0,23,23,30,252.9290168999869,,,,,,,,,,,,,,,252.91359799998463,252.9290168999869,252.9290168999869,253.42896829999518,253.9124275999784,None,0,253.93001419998473,,,,,,,,,,,,,,,4,001,2026-04-21_13h29.04.554,0back,,2025.1.1,59.56291541082484,2026-04-21 13h29.11.100489 +0200,
24,24,0,M,M,return,7.435994900006335,None,space,1,0.5236123000213411,0.16745670000091195,,,,,,1,0,1,0,0,0,0,0,0,24,24,4,253.93001419998473,,,,,,,,,,,,,,,253.91470919997664,253.93001419998473,253.93001419998473,254.44561739999335,254.91257139999652,space,1,254.9289979999885,0.5236123000213411,0.16745670000091195,,,,,,,,,,,,,4,001,2026-04-21_13h29.04.554,0back,,2025.1.1,59.56291541082484,2026-04-21 13h29.11.100489 +0200,
25,25,0,M,A,return,7.435994900006335,None,None,0,,,,,,,,1,0,1,0,0,0,0,0,0,25,25,29,254.9289979999885,,,,,,,,,,,,,,,254.91377699997975,254.9289979999885,254.9289979999885,255.42895999999018,255.9125672999944,None,0,255.92892589999246,,,,,,,,,,,,,,,4,001,2026-04-21_13h29.04.554,0back,,2025.1.1,59.56291541082484,2026-04-21 13h29.11.100489 +0200,
26,26,0,M,N,return,7.435994900006335,None,None,0,,,,,,,,1,0,1,0,0,0,0,0,0,26,26,19,255.92892589999246,,,,,,,,,,,,,,,255.91378989999066,255.92892589999246,255.92892589999246,256.4290576999774,256.9123613999982,None,0,256.92898879997665,,,,,,,,,,,,,,,4,001,2026-04-21_13h29.04.554,0back,,2025.1.1,59.56291541082484,2026-04-21 13h29.11.100489 +0200,
27,27,0,M,A,return,7.435994900006335,None,None,0,,,,,,,,1,0,1,0,0,0,0,0,0,27,27,31,256.92898879997665,,,,,,,,,,,,,,,256.91369829999167,256.92898879997665,256.92898879997665,257.42899659997784,257.91263439998147,None,0,257.92900979999104,,,,,,,,,,,,,,,4,001,2026-04-21_13h29.04.554,0back,,2025.1.1,59.56291541082484,2026-04-21 13h29.11.100489 +0200,
28,28,0,M,R,return,7.435994900006335,None,None,0,,,,,,,,1,0,1,0,0,0,0,0,0,28,28,14,257.92900979999104,,,,,,,,,,,,,,,257.9143198999809,257.92900979999104,257.92900979999104,258.42904599997564,258.9125651999784,None,0,258.92935769999167,,,,,,,,,,,,,,,4,001,2026-04-21_13h29.04.554,0back,,2025.1.1,59.56291541082484,2026-04-21 13h29.11.100489 +0200,
29,29,0,M,R,return,7.435994900006335,None,None,0,,,,,,,,1,0,1,0,0,0,0,0,0,29,29,15,258.92935769999167,,,,,,,,,,,,,,,258.912706299976,258.92935769999167,258.92935769999167,259.4289997999731,259.91248599998653,None,0,259.92897660000017,,,,,,,,,,,,,,,4,001,2026-04-21_13h29.04.554,0back,,2025.1.1,59.56291541082484,2026-04-21 13h29.11.100489 +0200,
30,30,0,M,M,return,7.435994900006335,None,space,1,0.644440800009761,0.16863559998455457,,,,,,1,0,1,0,0,0,0,0,0,30,30,7,259.92897660000017,,,,,,,,,,,,,,,259.91445429998566,259.92897660000017,259.92897660000017,260.4290879999753,260.9127707000007,space,1,260.9297372000001,0.644440800009761,0.16863559998455457,,,,,,,,,,,,,4,001,2026-04-21_13h29.04.554,0back,,2025.1.1,59.56291541082484,2026-04-21 13h29.11.100489 +0200,
31,31,0,M,A,return,7.435994900006335,None,None,0,,,,,,,,1,0,1,0,0,0,0,0,0,31,31,34,260.9297372000001,,,,,,,,,,,,,,,260.9140502999944,260.9297372000001,260.9297372000001,261.42895849997876,261.91242309997324,None,0,261.92894529999467,,,,,,,,,,,,,,,4,001,2026-04-21_13h29.04.554,0back,,2025.1.1,59.56291541082484,2026-04-21 13h29.11.100489 +0200,
32,32,0,M,O,return,7.435994900006335,None,None,0,,,,,,,,1,0,1,0,0,0,0,0,0,32,32,45,261.92894529999467,,,,,,,,,,,,,,,261.91369449999183,261.92894529999467,261.92894529999467,262.42900429997826,262.9135633999831,None,0,,,,,,,,,,,,,,,,4,001,2026-04-21_13h29.04.554,0back,,2025.1.1,59.56291541082484,2026-04-21 13h29.11.100489 +0200,
33,33,0,M,M,return,7.435994900006335,None,space,1,0.7235258000146132,0.16059179999865592,,,,,,1,0,1,0,0,0,0,0,0,33,33,5,262.93028659999254,,,,,,,,,,,,,,,262.9157412999775,262.93028659999254,262.93028659999254,263.4454772999743,263.92894299997715,space,1,,0.7235258000146132,0.16059179999865592,,,,,,,,,,,,,4,001,2026-04-21_13h29.04.554,0back,,2025.1.1,59.56291541082484,2026-04-21 13h29.11.100489 +0200,
34,34,0,M,N,return,7.435994900006335,None,None,0,,,,,,,,1,0,1,0,0,0,0,0,0,34,34,24,263.9455098999897,,,,,,,,,,,,,,,263.9302899999893,263.9455098999897,263.9455098999897,264.4455447999935,264.9290367999929,None,0,,,,,,,,,,,,,,,,4,001,2026-04-21_13h29.04.554,0back,,2025.1.1,59.56291541082484,2026-04-21 13h29.11.100489 +0200,
35,35,0,M,D,return,7.435994900006335,None,None,0,,,,,,,,1,0,1,0,0,0,0,0,0,35,35,48,264.94548129997565,,,,,,,,,,,,,,,264.9303736999864,264.94548129997565,264.94548129997565,265.44564609997906,265.9293410999817,None,0,,,,,,,,,,,,,,,,4,001,2026-04-21_13h29.04.554,0back,,2025.1.1,59.56291541082484,2026-04-21 13h29.11.100489 +0200,
36,36,0,M,A,return,7.435994900006335,None,None,0,,,,,,,,1,0,1,0,0,0,0,0,0,36,36,36,265.9460477999819,,,,,,,,,,,,,,,265.93072999999276,265.9460477999819,265.9460477999819,266.44548679998843,266.92905039998004,None,0,,,,,,,,,,,,,,,,4,001,2026-04-21_13h29.04.554,0back,,2025.1.1,59.56291541082484,2026-04-21 13h29.11.100489 +0200,
37,37,0,M,R,return,7.435994900006335,None,None,0,,,,,,,,1,0,1,0,0,0,0,0,0,37,37,13,266.945552899997,,,,,,,,,,,,,,,266.9303172999935,266.945552899997,266.945552899997,267.44560779997846,267.92903589998605,None,0,,,,,,,,,,,,,,,,4,001,2026-04-21_13h29.04.554,0back,,2025.1.1,59.56291541082484,2026-04-21 13h29.11.100489 +0200,
38,38,0,M,R,return,7.435994900006335,None,None,0,,,,,,,,1,0,1,0,0,0,0,0,0,38,38,18,267.94547669999884,,,,,,,,,,,,,,,267.92917639997904,267.94547669999884,267.94547669999884,268.44546939997235,268.9291462999827,None,0,,,,,,,,,,,,,,,,4,001,2026-04-21_13h29.04.554,0back,,2025.1.1,59.56291541082484,2026-04-21 13h29.11.100489 +0200,
39,39,0,M,I,return,7.435994900006335,None,None,0,,,,,,,,1,0,1,0,0,0,0,0,0,39,39,44,268.9456118999806,,,,,,,,,,,,,,,268.9304524999752,268.9456118999806,268.9456118999806,269.4454893999791,269.92915259997244,None,0,,,,,,,,,,,,,,,,4,001,2026-04-21_13h29.04.554,0back,,2025.1.1,59.56291541082484,2026-04-21 13h29.11.100489 +0200,
40,40,0,M,N,return,7.435994900006335,None,None,0,,,,,,,,1,0,1,0,0,0,0,0,0,40,40,26,269.94551809999393,,,,,,,,,,,,,,,269.93067669999436,269.94551809999393,269.94551809999393,270.44545209998614,270.9289730999735,None,0,,,,,,,,,,,,,,,,4,001,2026-04-21_13h29.04.554,0back,,2025.1.1,59.56291541082484,2026-04-21 13h29.11.100489 +0200,
41,41,0,M,N,return,7.435994900006335,None,None,0,,,,,,,,1,0,1,0,0,0,0,0,0,41,41,28,270.9457131999952,,,,,,,,,,,,,,,270.9291068999737,270.9457131999952,270.9457131999952,271.4458066999796,271.913330099982,None,0,,,,,,,,,,,,,,,,4,001,2026-04-21_13h29.04.554,0back,,2025.1.1,59.56291541082484,2026-04-21 13h29.11.100489 +0200,
42,42,0,M,A,return,7.435994900006335,None,None,0,,,,,,,,1,0,1,0,0,0,0,0,0,42,42,35,271.92899319998105,,,,,,,,,,,,,,,271.9146067999827,271.92899319998105,271.92899319998105,272.42900799997733,272.913106699998,None,0,,,,,,,,,,,,,,,,4,001,2026-04-21_13h29.04.554,0back,,2025.1.1,59.56291541082484,2026-04-21 13h29.11.100489 +0200,
43,43,0,M,N,return,7.435994900006335,None,None,0,,,,,,,,1,0,1,0,0,0,0,0,0,43,43,25,272.92907259997446,,,,,,,,,,,,,,,272.9149918999756,272.92907259997446,272.92907259997446,273.4289221999934,273.9125059999933,None,0,273.9291034999769,,,,,,,,,,,,,,,4,001,2026-04-21_13h29.04.554,0back,,2025.1.1,59.56291541082484,2026-04-21 13h29.11.100489 +0200,
44,44,0,M,R,return,7.435994900006335,None,None,0,,,,,,,,1,0,1,0,0,0,0,0,0,44,44,16,273.9291034999769,,,,,,,,,,,,,,,273.91390169999795,273.9291034999769,273.9291034999769,274.42894739998155,274.91300029997365,None,0,,,,,,,,,,,,,,,,4,001,2026-04-21_13h29.04.554,0back,,2025.1.1,59.56291541082484,2026-04-21 13h29.11.100489 +0200,
45,45,0,M,M,return,7.435994900006335,None,space,1,0.6284726000158116,0.1848589000001084,,,,,,1,0,1,0,0,0,0,0,0,45,45,0,274.9291547999892,,,,,,,,,,,,,,,274.9160959000001,274.9291547999892,274.9291547999892,275.42892619999475,275.91268439998385,space,1,275.92904209997505,0.6284726000158116,0.1848589000001084,,,,,,,,,,,,,4,001,2026-04-21_13h29.04.554,0back,,2025.1.1,59.56291541082484,2026-04-21 13h29.11.100489 +0200,
46,46,0,M,R,return,7.435994900006335,None,None,0,,,,,,,,1,0,1,0,0,0,0,0,0,46,46,11,275.92904209997505,,,,,,,,,,,,,,,275.9145284999977,275.92904209997505,275.92904209997505,276.4290015999868,276.91238869997323,None,0,276.9290369999944,,,,,,,,,,,,,,,4,001,2026-04-21_13h29.04.554,0back,,2025.1.1,59.56291541082484,2026-04-21 13h29.11.100489 +0200,
47,47,0,M,Y,return,7.435994900006335,None,None,0,,,,,,,,1,0,1,0,0,0,0,0,0,47,47,42,276.9290369999944,,,,,,,,,,,,,,,276.9136725999997,276.9290369999944,276.9290369999944,277.4290589999873,277.9123608999944,None,0,277.92906149997725,,,,,,,,,,,,,,,4,001,2026-04-21_13h29.04.554,0back,,2025.1.1,59.56291541082484,2026-04-21 13h29.11.100489 +0200,
48,48,0,M,Q,return,7.435994900006335,None,None,0,,,,,,,,1,0,1,0,0,0,0,0,0,48,48,47,277.92906149997725,,,,,,,,,,,,,,,277.9136371999921,277.92906149997725,277.92906149997725,278.4289497999998,278.912405799987,None,0,278.9290118999779,,,,,,,,,,,,,,,4,001,2026-04-21_13h29.04.554,0back,,2025.1.1,59.56291541082484,2026-04-21 13h29.11.100489 +0200,
49,49,0,M,M,return,7.435994900006335,None,space,1,0.7250020999927074,0.16876279999269173,,,,,,1,0,1,0,0,0,0,0,0,49,49,6,278.9290118999779,,,,,,,,,,,,,,,278.91436719999183,278.9290118999779,278.9290118999779,279.42905219999375,279.91268619999755,space,1,279.9290478999901,0.7250020999927074,0.16876279999269173,,,,,,,,,,,,,4,001,2026-04-21_13h29.04.554,0back,,2025.1.1,59.56291541082484,2026-04-21 13h29.11.100489 +0200,
0,0,0,M,,return,7.435994900006335,None,,,,,,,,,,1,0,1,0,0,0,0,0,,,,,,,,,,,,,,,,,,,,,,,,,,,,,,,,,,,,,,,,,,4,001,2026-04-21_13h29.04.554,0back,,2025.1.1,59.56291541082484,2026-04-21 13h29.11.100489 +0200,
0,0,0,R,A,return,2.87701090000337,None,None,0,,,,,,,,1,0,1,0,0,1,1,1,0,0,0,29,282.82906579997507,,,,,,279.92002939997474,279.9290478999901,279.9290478999901,279.9290478999901,279.9290478999901,282.812712199986,return,2.87701090000337,None,282.8187404999917,282.82906579997507,282.82906579997507,283.32900769999833,283.81255759997293,None,0,283.82899989999714,,,,,,,,,,,,,,,4,001,2026-04-21_13h29.04.554,0back,,2025.1.1,59.56291541082484,2026-04-21 13h29.11.100489 +0200,
1,1,0,R,R,return,2.87701090000337,None,space,1,0.6900273000064772,0.12831940001342446,,,,,,1,0,1,0,0,1,1,1,0,1,1,11,283.82899989999714,,,,,,,,,,,,,,,283.81473399998504,283.82899989999714,283.82899989999714,284.3293518999999,284.81234929998755,space,1,284.82906819999334,0.6900273000064772,0.12831940001342446,,,,,,,,,,,,,4,001,2026-04-21_13h29.04.554,0back,,2025.1.1,59.56291541082484,2026-04-21 13h29.11.100489 +0200,
2,2,0,R,N,return,2.87701090000337,None,None,0,,,,,,,,1,0,1,0,0,1,1,1,0,2,2,24,284.82906819999334,,,,,,,,,,,,,,,284.81361449998803,284.82906819999334,284.82906819999334,285.32901489999495,285.8125791999919,None,0,285.8289534999931,,,,,,,,,,,,,,,4,001,2026-04-21_13h29.04.554,0back,,2025.1.1,59.56291541082484,2026-04-21 13h29.11.100489 +0200,
3,3,0,R,A,return,2.87701090000337,None,None,0,,,,,,,,1,0,1,0,0,1,1,1,0,3,3,37,285.8289534999931,,,,,,,,,,,,,,,285.8137925999763,285.8289534999931,285.8289534999931,286.3289885999984,286.81280719998176,None,0,286.8290500000003,,,,,,,,,,,,,,,4,001,2026-04-21_13h29.04.554,0back,,2025.1.1,59.56291541082484,2026-04-21 13h29.11.100489 +0200,
4,4,0,R,Z,return,2.87701090000337,None,None,0,,,,,,,,1,0,1,0,0,1,1,1,0,4,4,39,286.8290500000003,,,,,,,,,,,,,,,286.8145775999874,286.8290500000003,286.8290500000003,287.3289479999803,287.8124958999979,None,0,287.8289891999739,,,,,,,,,,,,,,,4,001,2026-04-21_13h29.04.554,0back,,2025.1.1,59.56291541082484,2026-04-21 13h29.11.100489 +0200,
5,5,0,R,M,return,2.87701090000337,None,None,0,,,,,,,,1,0,1,0,0,1,1,1,0,5,5,2,287.8289891999739,,,,,,,,,,,,,,,287.8136975999805,287.8289891999739,287.8289891999739,288.3291683999996,288.81263779997244,None,0,288.8290027999901,,,,,,,,,,,,,,,4,001,2026-04-21_13h29.04.554,0back,,2025.1.1,59.56291541082484,2026-04-21 13h29.11.100489 +0200,
6,6,0,R,M,return,2.87701090000337,None,None,0,,,,,,,,1,0,1,0,0,1,1,1,0,6,6,7,288.8290027999901,,,,,,,,,,,,,,,288.81276659999276,288.8290027999901,288.8290027999901,289.3290281999798,289.8130249999813,None,0,,,,,,,,,,,,,,,,4,001,2026-04-21_13h29.04.554,0back,,2025.1.1,59.56291541082484,2026-04-21 13h29.11.100489 +0200,
7,7,0,R,A,return,2.87701090000337,None,None,0,,,,,,,,1,0,1,0,0,1,1,1,0,7,7,38,289.8294178999786,,,,,,,,,,,,,,,289.814337799995,289.8294178999786,289.8294178999786,290.32898489999934,290.8134230999858,None,0,,,,,,,,,,,,,,,,4,001,2026-04-21_13h29.04.554,0back,,2025.1.1,59.56291541082484,2026-04-21 13h29.11.100489 +0200,
8,8,0,R,N,return,2.87701090000337,None,None,0,,,,,,,,1,0,1,0,0,1,1,1,0,8,8,26,290.8293991999817,,,,,,,,,,,,,,,290.8154369999829,290.8293991999817,290.8293991999817,291.32897919998504,291.8125987999956,None,0,291.82934219998424,,,,,,,,,,,,,,,4,001,2026-04-21_13h29.04.554,0back,,2025.1.1,59.56291541082484,2026-04-21 13h29.11.100489 +0200,
9,9,0,R,N,return,2.87701090000337,None,None,0,,,,,,,,1,0,1,0,0,1,1,1,0,9,9,21,291.82934219998424,,,,,,,,,,,,,,,291.8127371999726,291.82934219998424,291.82934219998424,292.3288979999779,292.81257589999586,None,0,292.82893309998326,,,,,,,,,,,,,,,4,001,2026-04-21_13h29.04.554,0back,,2025.1.1,59.56291541082484,2026-04-21 13h29.11.100489 +0200,
10,10,0,R,A,return,2.87701090000337,None,None,0,,,,,,,,1,0,1,0,0,1,1,1,0,10,10,30,292.82893309998326,,,,,,,,,,,,,,,292.8141477999743,292.82893309998326,292.82893309998326,293.32900269998936,293.8130539999984,None,0,,,,,,,,,,,,,,,,4,001,2026-04-21_13h29.04.554,0back,,2025.1.1,59.56291541082484,2026-04-21 13h29.11.100489 +0200,
11,11,0,R,P,return,2.87701090000337,None,None,0,,,,,,,,1,0,1,0,0,1,1,1,0,11,11,46,293.8290723999962,,,,,,,,,,,,,,,293.8145946000004,293.8290723999962,293.8290723999962,294.32904199999757,294.81248609998147,None,0,294.82905469997786,,,,,,,,,,,,,,,4,001,2026-04-21_13h29.04.554,0back,,2025.1.1,59.56291541082484,2026-04-21 13h29.11.100489 +0200,
12,12,0,R,R,return,2.87701090000337,None,space,1,0.744527900009416,0.1359791999857407,,,,,,1,0,1,0,0,1,1,1,0,12,12,10,294.82905469997786,,,,,,,,,,,,,,,294.81447629997274,294.82905469997786,294.82905469997786,295.3289694999985,295.8126890999847,space,1,295.8293668999977,0.744527900009416,0.1359791999857407,,,,,,,,,,,,,4,001,2026-04-21_13h29.04.554,0back,,2025.1.1,59.56291541082484,2026-04-21 13h29.11.100489 +0200,
13,13,0,R,N,return,2.87701090000337,None,None,0,,,,,,,,1,0,1,0,0,1,1,1,0,13,13,20,295.8293668999977,,,,,,,,,,,,,,,295.81462689998443,295.8293668999977,295.8293668999977,296.3289984999865,296.8124671999831,None,0,296.8290887999756,,,,,,,,,,,,,,,4,001,2026-04-21_13h29.04.554,0back,,2025.1.1,59.56291541082484,2026-04-21 13h29.11.100489 +0200,
14,14,0,R,Q,return,2.87701090000337,None,None,0,,,,,,,,1,0,1,0,0,1,1,1,0,14,14,47,296.8290887999756,,,,,,,,,,,,,,,296.81371379998745,296.8290887999756,296.8290887999756,297.3289285999781,297.8126050999854,None,0,297.8290082999738,,,,,,,,,,,,,,,4,001,2026-04-21_13h29.04.554,0back,,2025.1.1,59.56291541082484,2026-04-21 13h29.11.100489 +0200,
15,15,0,R,N,return,2.87701090000337,None,None,0,,,,,,,,1,0,1,0,0,1,1,1,0,15,15,19,297.8290082999738,,,,,,,,,,,,,,,297.81395519999205,297.8290082999738,297.8290082999738,298.3300566999824,298.8125578999752,None,0,298.8290333999903,,,,,,,,,,,,,,,4,001,2026-04-21_13h29.04.554,0back,,2025.1.1,59.56291541082484,2026-04-21 13h29.11.100489 +0200,
16,16,0,R,C,return,2.87701090000337,None,None,0,,,,,,,,1,0,1,0,0,1,1,1,0,16,16,49,298.8290333999903,,,,,,,,,,,,,,,298.8137641999929,298.8290333999903,298.8290333999903,299.3290209999832,299.81262039998546,None,0,299.8291437999869,,,,,,,,,,,,,,,4,001,2026-04-21_13h29.04.554,0back,,2025.1.1,59.56291541082484,2026-04-21 13h29.11.100489 +0200,
17,17,0,R,I,return,2.87701090000337,None,None,0,,,,,,,,1,0,1,0,0,1,1,1,0,17,17,44,299.8291437999869,,,,,,,,,,,,,,,299.8145837999764,299.8291437999869,299.8291437999869,300.32975669999723,300.8125742999837,None,0,300.82953699998325,,,,,,,,,,,,,,,4,001,2026-04-21_13h29.04.554,0back,,2025.1.1,59.56291541082484,2026-04-21 13h29.11.100489 +0200,
18,18,0,R,R,return,2.87701090000337,None,space,1,0.5289509000140242,0.13593679998302832,,,,,,1,0,1,0,0,1,1,1,0,18,18,17,300.82953699998325,,,,,,,,,,,,,,,300.81451089997427,300.82953699998325,300.82953699998325,301.3289270999958,301.8130730999983,space,1,,0.5289509000140242,0.13593679998302832,,,,,,,,,,,,,4,001,2026-04-21_13h29.04.554,0back,,2025.1.1,59.56291541082484,2026-04-21 13h29.11.100489 +0200,
19,19,0,R,N,return,2.87701090000337,None,None,0,,,,,,,,1,0,1,0,0,1,1,1,0,19,19,27,301.8289653999964,,,,,,,,,,,,,,,301.8149731999729,301.8289653999964,301.8289653999964,302.32912819998455,302.8128213999735,None,0,302.8297191999736,,,,,,,,,,,,,,,4,001,2026-04-21_13h29.04.554,0back,,2025.1.1,59.56291541082484,2026-04-21 13h29.11.100489 +0200,
20,20,0,R,Y,return,2.87701090000337,None,None,0,,,,,,,,1,0,1,0,0,1,1,1,0,20,20,42,302.8297191999736,,,,,,,,,,,,,,,302.8147126999975,302.8297191999736,302.8297191999736,303.3290441999852,303.8124763999949,None,0,303.8290630999836,,,,,,,,,,,,,,,4,001,2026-04-21_13h29.04.554,0back,,2025.1.1,59.56291541082484,2026-04-21 13h29.11.100489 +0200,
21,21,0,R,M,return,2.87701090000337,None,None,0,,,,,,,,1,0,1,0,0,1,1,1,0,21,21,4,303.8290630999836,,,,,,,,,,,,,,,303.81377999999677,303.8290630999836,303.8290630999836,304.32907209999394,304.8124052999774,None,0,304.8290398999816,,,,,,,,,,,,,,,4,001,2026-04-21_13h29.04.554,0back,,2025.1.1,59.56291541082484,2026-04-21 13h29.11.100489 +0200,
22,22,0,R,N,return,2.87701090000337,None,None,0,,,,,,,,1,0,1,0,0,1,1,1,0,22,22,28,304.8290398999816,,,,,,,,,,,,,,,304.8136975999805,304.8290398999816,304.8290398999816,305.32911709998734,305.8124887999729,None,0,305.8289626999758,,,,,,,,,,,,,,,4,001,2026-04-21_13h29.04.554,0back,,2025.1.1,59.56291541082484,2026-04-21 13h29.11.100489 +0200,
