thisN,thisTrialN,thisRepN,target,thisLetter,key_resp_2.keys,key_resp_2.rt,key_resp_2.duration,key_resp.keys,key_resp.corr,key_resp.rt,key_resp.duration,RSME_ticks.response,RSME_ticks.rt,button_next_11.numClicks,button_next_11.timesOn,button_next_11.timesOff,Blocks_X6.thisRepN,Blocks_X6.thisTrialN,Blocks_X6.thisN,Blocks_X6.thisIndex,Sequence_of_targets_X4.thisRepN,Sequence_of_targets_X4.thisTrialN,Sequence_of_targets_X4.thisN,Sequence_of_targets_X4.thisIndex,trial_X50.thisRepN,trial_X50.thisTrialN,trial_X50.thisN,trial_X50.thisIndex,thisRow.t,notes,INIT_LSL.started,text_init.started,INIT_LSL.stopped,INTRO_PRE_BLOCK.started,text.started,key_resp_2.started,text_6.started,text_7.started,INTRO_PRE_BLOCK.stopped,Sequence_of_targets_X4.key_resp_2.keys,Sequence_of_targets_X4.key_resp_2.rt,Sequence_of_targets_X4.key_resp_2.duration,One_Trial.started,Letter.started,key_resp.started,Letter.stopped,key_resp.stopped,One_Trial.stopped,trial_X50.key_resp.keys,trial_X50.key_resp.corr,trial_X50.key_resp.rt,trial_X50.key_resp.duration,KSS_POST_BLOCK.started,RSME_labels.started,RSME_ticks.started,RSME_text.started,answer1_text.started,button_next_11.started,KSS_POST_BLOCK.stopped,Blocks_X6.RSME_ticks.response,Blocks_X6.RSME_ticks.rt,Blocks_X6.button_next_11.numClicks,Blocks_X6.button_next_11.timesOn,Blocks_X6.button_next_11.timesOff,participant,session,date,expName,expVersion,psychopyVersion,frameRate,expStart,
,,,,,,,,,,,,,,,,,,,,,,,,,,,,,,,0.005681499998900108,0.008316799998283386,1.0003665999975055,,,,,,,,,,,,,,,,,,,,,,,,,,,,,,,,7,001,2026-04-20_10h41.48.654,0back,,2025.1.1,60.00088801117306,2026-04-20 10h41.54.837856 +0200,
0,0,0,R,A,return,5.64464610000141,None,None,0,,,,,,,,0,0,0,0,0,0,0,1,0,0,0,29,6.683507100002316,,,,,1.0091049000038765,1.0170557000019471,1.0170557000019471,1.0170557000019471,1.0170557000019471,6.670977900001162,return,5.64464610000141,None,6.676943300000858,6.683507100002316,6.683507100002316,7.1834472000045935,7.683474500001466,7.666989500001364,None,0,,,,,,,,,,,,,,,7,001,2026-04-20_10h41.48.654,0back,,2025.1.1,60.00088801117306,2026-04-20 10h41.54.837856 +0200,
1,1,0,R,R,return,5.64464610000141,None,space,1,0.5458969999963301,0.15992580000602175,,,,,,0,0,0,0,0,0,0,1,0,1,1,18,7.683474500001466,,,,,,,,,,,,,,7.669004000003042,7.683474500001466,7.683474500001466,8.183362000003399,8.68333839999832,8.667074199998751,space,1,0.5458969999963301,0.15992580000602175,,,,,,,,,,,,,7,001,2026-04-20_10h41.48.654,0back,,2025.1.1,60.00088801117306,2026-04-20 10h41.54.837856 +0200,
2,2,0,R,A,return,5.64464610000141,None,None,0,,,,,,,,0,0,0,0,0,0,0,1,0,2,2,31,8.68333839999832,,,,,,,,,,,,,,8.668341299999156,8.68333839999832,8.68333839999832,9.183444000002055,9.683435300001292,9.667000200002803,None,0,,,,,,,,,,,,,,,7,001,2026-04-20_10h41.48.654,0back,,2025.1.1,60.00088801117306,2026-04-20 10h41.54.837856 +0200,
3,3,0,R,A,return,5.64464610000141,None,None,0,,,,,,,,0,0,0,0,0,0,0,1,0,3,3,35,9.683435300001292,,,,,,,,,,,,,,9.667126799999096,9.683435300001292,9.683435300001292,10.18341280000459,10.683454199999687,10.667097400000785,None,0,,,,,,,,,,,,,,,7,001,2026-04-20_10h41.48.654,0back,,2025.1.1,60.00088801117306,2026-04-20 10h41.54.837856 +0200,
4,4,0,R,R,return,5.64464610000141,None,space,1,0.3622814999980619,0.17564620000484865,,,,,,0,0,0,0,0,0,0,1,0,4,4,13,10.683454199999687,,,,,,,,,,,,,,10.669914600002812,10.683454199999687,10.683454199999687,11.18337210000027,11.683404399998835,11.667164300000877,space,1,0.3622814999980619,0.17564620000484865,,,,,,,,,,,,,7,001,2026-04-20_10h41.48.654,0back,,2025.1.1,60.00088801117306,2026-04-20 10h41.54.837856 +0200,
5,5,0,R,A,return,5.64464610000141,None,None,0,,,,,,,,0,0,0,0,0,0,0,1,0,5,5,33,11.683404399998835,,,,,,,,,,,,,,11.668564999999944,11.683404399998835,11.683404399998835,12.183385600001202,12.683416300002136,12.666999599998235,None,0,,,,,,,,,,,,,,,7,001,2026-04-20_10h41.48.654,0back,,2025.1.1,60.00088801117306,2026-04-20 10h41.54.837856 +0200,
6,6,0,R,T,return,5.64464610000141,None,None,0,,,,,,,,0,0,0,0,0,0,0,1,0,6,6,41,12.683416300002136,,,,,,,,,,,,,,12.669770200001949,12.683416300002136,12.683416300002136,13.183374200001708,13.683475899997575,13.667149799999606,None,0,,,,,,,,,,,,,,,7,001,2026-04-20_10h41.48.654,0back,,2025.1.1,60.00088801117306,2026-04-20 10h41.54.837856 +0200,
7,7,0,R,M,return,5.64464610000141,None,None,0,,,,,,,,0,0,0,0,0,0,0,1,0,7,7,1,13.683475899997575,,,,,,,,,,,,,,13.669800299998315,13.683475899997575,13.683475899997575,14.183291800000006,14.684002599999076,14.66713709999749,None,0,,,,,,,,,,,,,,,7,001,2026-04-20_10h41.48.654,0back,,2025.1.1,60.00088801117306,2026-04-20 10h41.54.837856 +0200,
8,8,0,R,M,return,5.64464610000141,None,None,0,,,,,,,,0,0,0,0,0,0,0,1,0,8,8,6,14.684002599999076,,,,,,,,,,,,,,14.667262100003427,14.684002599999076,14.684002599999076,15.183417500003998,15.68329210000229,15.666961599999922,None,0,,,,,,,,,,,,,,,7,001,2026-04-20_10h41.48.654,0back,,2025.1.1,60.00088801117306,2026-04-20 10h41.54.837856 +0200,
9,9,0,R,Z,return,5.64464610000141,None,None,0,,,,,,,,0,0,0,0,0,0,0,1,0,9,9,39,15.68329210000229,,,,,,,,,,,,,,15.670897000003606,15.68329210000229,15.68329210000229,16.183286300001782,16.683409800003574,16.66707480000332,None,0,,,,,,,,,,,,,,,7,001,2026-04-20_10h41.48.654,0back,,2025.1.1,60.00088801117306,2026-04-20 10h41.54.837856 +0200,
10,10,0,R,M,return,5.64464610000141,None,None,0,,,,,,,,0,0,0,0,0,0,0,1,0,10,10,0,16.683409800003574,,,,,,,,,,,,,,16.668435400002636,16.683409800003574,16.683409800003574,17.183291599998483,17.683293000001868,17.66709809999884,None,0,,,,,,,,,,,,,,,7,001,2026-04-20_10h41.48.654,0back,,2025.1.1,60.00088801117306,2026-04-20 10h41.54.837856 +0200,
11,11,0,R,A,return,5.64464610000141,None,None,0,,,,,,,,0,0,0,0,0,0,0,1,0,11,11,30,17.683293000001868,,,,,,,,,,,,,,17.66848349999782,17.683293000001868,17.683293000001868,18.183296399998653,18.683358399997815,18.667090900002222,None,0,,,,,,,,,,,,,,,7,001,2026-04-20_10h41.48.654,0back,,2025.1.1,60.00088801117306,2026-04-20 10h41.54.837856 +0200,
12,12,0,R,U,return,5.64464610000141,None,None,0,,,,,,,,0,0,0,0,0,0,0,1,0,12,12,43,18.683358399997815,,,,,,,,,,,,,,18.6704000000027,18.683358399997815,18.683358399997815,19.183270400004403,19.68324030000076,19.667013600002974,None,0,,,,,,,,,,,,,,,7,001,2026-04-20_10h41.48.654,0back,,2025.1.1,60.00088801117306,2026-04-20 10h41.54.837856 +0200,
13,13,0,R,R,return,5.64464610000141,None,space,1,0.35433280000142986,0.23204030000488274,,,,,,0,0,0,0,0,0,0,1,0,13,13,15,19.68324030000076,,,,,,,,,,,,,,19.669350199998007,19.68324030000076,19.68324030000076,20.18326270000398,20.683313300003647,20.667261399998097,space,1,0.35433280000142986,0.23204030000488274,,,,,,,,,,,,,7,001,2026-04-20_10h41.48.654,0back,,2025.1.1,60.00088801117306,2026-04-20 10h41.54.837856 +0200,
14,14,0,R,R,return,5.64464610000141,None,space,1,0.5545016000032774,0.15978159999940544,,,,,,0,0,0,0,0,0,0,1,0,14,14,11,20.683313300003647,,,,,,,,,,,,,,20.66835020000144,20.683313300003647,20.683313300003647,21.18335140000272,21.68331770000077,21.66704320000281,space,1,0.5545016000032774,0.15978159999940544,,,,,,,,,,,,,7,001,2026-04-20_10h41.48.654,0back,,2025.1.1,60.00088801117306,2026-04-20 10h41.54.837856 +0200,
15,15,0,R,A,return,5.64464610000141,None,None,0,,,,,,,,0,0,0,0,0,0,0,1,0,15,15,36,21.68331770000077,,,,,,,,,,,,,,21.668561899998167,21.68331770000077,21.68331770000077,22.183339299997897,22.68343260000256,22.66710990000138,None,0,,,,,,,,,,,,,,,7,001,2026-04-20_10h41.48.654,0back,,2025.1.1,60.00088801117306,2026-04-20 10h41.54.837856 +0200,
16,16,0,R,M,return,5.64464610000141,None,None,0,,,,,,,,0,0,0,0,0,0,0,1,0,16,16,4,22.68343260000256,,,,,,,,,,,,,,22.668391500003054,22.68343260000256,22.68343260000256,23.18333259999781,23.683355599998322,23.667022400004498,None,0,,,,,,,,,,,,,,,7,001,2026-04-20_10h41.48.654,0back,,2025.1.1,60.00088801117306,2026-04-20 10h41.54.837856 +0200,
17,17,0,R,N,return,5.64464610000141,None,None,0,,,,,,,,0,0,0,0,0,0,0,1,0,17,17,19,23.683355599998322,,,,,,,,,,,,,,23.66971609999746,23.683355599998322,23.683355599998322,24.18336100000306,24.68342449999909,24.66752650000126,None,0,,,,,,,,,,,,,,,7,001,2026-04-20_10h41.48.654,0back,,2025.1.1,60.00088801117306,2026-04-20 10h41.54.837856 +0200,
18,18,0,R,M,return,5.64464610000141,None,None,0,,,,,,,,0,0,0,0,0,0,0,1,0,18,18,5,24.68342449999909,,,,,,,,,,,,,,24.668879800003197,24.68342449999909,24.68342449999909,25.183401800000865,25.683424900002137,25.667080500003067,None,0,,,,,,,,,,,,,,,7,001,2026-04-20_10h41.48.654,0back,,2025.1.1,60.00088801117306,2026-04-20 10h41.54.837856 +0200,
19,19,0,R,N,return,5.64464610000141,None,None,0,,,,,,,,0,0,0,0,0,0,0,1,0,19,19,20,25.683424900002137,,,,,,,,,,,,,,25.668446399999084,25.683424900002137,25.683424900002137,26.18341700000019,26.683485000001383,26.66704910000408,None,0,,,,,,,,,,,,,,,7,001,2026-04-20_10h41.48.654,0back,,2025.1.1,60.00088801117306,2026-04-20 10h41.54.837856 +0200,
20,20,0,R,E,return,5.64464610000141,None,None,0,,,,,,,,0,0,0,0,0,0,0,1,0,20,20,40,26.683485000001383,,,,,,,,,,,,,,26.668416599997727,26.683485000001383,26.683485000001383,27.183849699998973,27.683348400001705,27.66715760000079,None,0,,,,,,,,,,,,,,,7,001,2026-04-20_10h41.48.654,0back,,2025.1.1,60.00088801117306,2026-04-20 10h41.54.837856 +0200,
21,21,0,R,R,return,5.64464610000141,None,space,1,0.49134829999820795,0.16717150000476977,,,,,,0,0,0,0,0,0,0,1,0,21,21,14,27.683348400001705,,,,,,,,,,,,,,27.669659600003797,27.683348400001705,27.683348400001705,28.18341700000019,28.683468200004427,28.667163700003584,space,1,0.49134829999820795,0.16717150000476977,,,,,,,,,,,,,7,001,2026-04-20_10h41.48.654,0back,,2025.1.1,60.00088801117306,2026-04-20 10h41.54.837856 +0200,
22,22,0,R,R,return,5.64464610000141,None,space,1,0.5946416000006138,0.17672290000336943,,,,,,0,0,0,0,0,0,0,1,0,22,22,9,28.683468200004427,,,,,,,,,,,,,,28.668220100000326,28.683468200004427,28.683468200004427,29.183440599997994,29.683431700002984,29.667231999999785,space,1,0.5946416000006138,0.17672290000336943,,,,,,,,,,,,,7,001,2026-04-20_10h41.48.654,0back,,2025.1.1,60.00088801117306,2026-04-20 10h41.54.837856 +0200,
23,23,0,R,C,return,5.64464610000141,None,None,0,,,,,,,,0,0,0,0,0,0,0,1,0,23,23,49,29.683431700002984,,,,,,,,,,,,,,29.670162000002165,29.683431700002984,29.683431700002984,30.183392700004333,30.683371500002977,30.666946199999074,None,0,,,,,,,,,,,,,,,7,001,2026-04-20_10h41.48.654,0back,,2025.1.1,60.00088801117306,2026-04-20 10h41.54.837856 +0200,
24,24,0,R,N,return,5.64464610000141,None,None,0,,,,,,,,0,0,0,0,0,0,0,1,0,24,24,23,30.683371500002977,,,,,,,,,,,,,,30.668293800001265,30.683371500002977,30.683371500002977,31.18332460000238,31.68351740000071,31.66716489999817,None,0,,,,,,,,,,,,,,,7,001,2026-04-20_10h41.48.654,0back,,2025.1.1,60.00088801117306,2026-04-20 10h41.54.837856 +0200,
25,25,0,R,Q,return,5.64464610000141,None,None,0,,,,,,,,0,0,0,0,0,0,0,1,0,25,25,47,31.68351740000071,,,,,,,,,,,,,,31.670860600002925,31.68351740000071,31.68351740000071,32.18357870000182,32.68341560000408,32.66694219999772,None,0,,,,,,,,,,,,,,,7,001,2026-04-20_10h41.48.654,0back,,2025.1.1,60.00088801117306,2026-04-20 10h41.54.837856 +0200,
26,26,0,R,I,return,5.64464610000141,None,None,0,,,,,,,,0,0,0,0,0,0,0,1,0,26,26,44,32.68341560000408,,,,,,,,,,,,,,32.66825770000287,32.68341560000408,32.68341560000408,33.18389330000355,33.683391099999426,33.66699289999815,None,0,,,,,,,,,,,,,,,7,001,2026-04-20_10h41.48.654,0back,,2025.1.1,60.00088801117306,2026-04-20 10h41.54.837856 +0200,
27,27,0,R,A,return,5.64464610000141,None,None,0,,,,,,,,0,0,0,0,0,0,0,1,0,27,27,38,33.683391099999426,,,,,,,,,,,,,,33.66828460000397,33.683391099999426,33.683391099999426,34.183408800003235,34.68343340000138,34.66724239999894,None,0,,,,,,,,,,,,,,,7,001,2026-04-20_10h41.48.654,0back,,2025.1.1,60.00088801117306,2026-04-20 10h41.54.837856 +0200,
28,28,0,R,N,return,5.64464610000141,None,None,0,,,,,,,,0,0,0,0,0,0,0,1,0,28,28,25,34.68343340000138,,,,,,,,,,,,,,34.66881060000014,34.68343340000138,34.68343340000138,35.18337150000298,35.68333580000035,35.66685729999881,None,0,,,,,,,,,,,,,,,7,001,2026-04-20_10h41.48.654,0back,,2025.1.1,60.00088801117306,2026-04-20 10h41.54.837856 +0200,
29,29,0,R,A,return,5.64464610000141,None,None,0,,,,,,,,0,0,0,0,0,0,0,1,0,29,29,34,35.68333580000035,,,,,,,,,,,,,,35.668057599999884,35.68333580000035,35.68333580000035,36.18330260000221,36.683514500000456,36.66707309999765,None,0,,,,,,,,,,,,,,,7,001,2026-04-20_10h41.48.654,0back,,2025.1.1,60.00088801117306,2026-04-20 10h41.54.837856 +0200,
30,30,0,R,N,return,5.64464610000141,None,None,0,,,,,,,,0,0,0,0,0,0,0,1,0,30,30,24,36.683514500000456,,,,,,,,,,,,,,36.668304999999236,36.683514500000456,36.683514500000456,37.18330080000305,37.683628200000385,37.66713349999918,None,0,,,,,,,,,,,,,,,7,001,2026-04-20_10h41.48.654,0back,,2025.1.1,60.00088801117306,2026-04-20 10h41.54.837856 +0200,
31,31,0,R,R,return,5.64464610000141,None,space,1,0.30652379999810364,0.19143669999903068,,,,,,0,0,0,0,0,0,0,1,0,31,31,10,37.683628200000385,,,,,,,,,,,,,,37.67034579999745,37.683628200000385,37.683628200000385,38.18330930000229,38.68337189999875,38.66712969999935,space,1,0.30652379999810364,0.19143669999903068,,,,,,,,,,,,,7,001,2026-04-20_10h41.48.654,0back,,2025.1.1,60.00088801117306,2026-04-20 10h41.54.837856 +0200,
32,32,0,R,Y,return,5.64464610000141,None,None,0,,,,,,,,0,0,0,0,0,0,0,1,0,32,32,42,38.68337189999875,,,,,,,,,,,,,,38.67072780000308,38.68337189999875,38.68337189999875,39.183349500002805,39.68333839999832,39.667015099999844,None,0,,,,,,,,,,,,,,,7,001,2026-04-20_10h41.48.654,0back,,2025.1.1,60.00088801117306,2026-04-20 10h41.54.837856 +0200,
33,33,0,R,M,return,5.64464610000141,None,None,0,,,,,,,,0,0,0,0,0,0,0,1,0,33,33,3,39.68333839999832,,,,,,,,,,,,,,39.66830470000423,39.68333839999832,39.68333839999832,40.18341170000349,40.68352269999741,40.667291199999454,None,0,,,,,,,,,,,,,,,7,001,2026-04-20_10h41.48.654,0back,,2025.1.1,60.00088801117306,2026-04-20 10h41.54.837856 +0200,
34,34,0,R,N,return,5.64464610000141,None,None,0,,,,,,,,0,0,0,0,0,0,0,1,0,34,34,21,40.68352269999741,,,,,,,,,,,,,,40.66944810000132,40.68352269999741,40.68352269999741,41.18329490000178,41.68326920000254,41.66689860000042,None,0,,,,,,,,,,,,,,,7,001,2026-04-20_10h41.48.654,0back,,2025.1.1,60.00088801117306,2026-04-20 10h41.54.837856 +0200,
35,35,0,R,P,return,5.64464610000141,None,None,0,,,,,,,,0,0,0,0,0,0,0,1,0,35,35,46,41.68326920000254,,,,,,,,,,,,,,41.668980200003716,41.68326920000254,41.68326920000254,42.183307699997385,42.68325249999907,42.66701589999866,None,0,,,,,,,,,,,,,,,7,001,2026-04-20_10h41.48.654,0back,,2025.1.1,60.00088801117306,2026-04-20 10h41.54.837856 +0200,
36,36,0,R,N,return,5.64464610000141,None,None,0,,,,,,,,0,0,0,0,0,0,0,1,0,36,36,22,42.68325249999907,,,,,,,,,,,,,,42.66832319999958,42.68325249999907,42.68325249999907,43.183400599999004,43.68352849999792,43.66717349999817,None,0,,,,,,,,,,,,,,,7,001,2026-04-20_10h41.48.654,0back,,2025.1.1,60.00088801117306,2026-04-20 10h41.54.837856 +0200,
37,37,0,R,N,return,5.64464610000141,None,None,0,,,,,,,,0,0,0,0,0,0,0,1,0,37,37,26,43.68352849999792,,,,,,,,,,,,,,43.6673609999998,43.68352849999792,43.68352849999792,44.183449299998756,44.68339510000078,44.6670396000045,None,0,,,,,,,,,,,,,,,7,001,2026-04-20_10h41.48.654,0back,,2025.1.1,60.00088801117306,2026-04-20 10h41.54.837856 +0200,
38,38,0,R,R,return,5.64464610000141,None,space,1,0.459126900001138,0.19161549999989802,,,,,,0,0,0,0,0,0,0,1,0,38,38,16,44.68339510000078,,,,,,,,,,,,,,44.668990199999826,44.68339510000078,44.68339510000078,45.18324959999882,45.68348169999808,45.66718770000443,space,1,0.459126900001138,0.19161549999989802,,,,,,,,,,,,,7,001,2026-04-20_10h41.48.654,0back,,2025.1.1,60.00088801117306,2026-04-20 10h41.54.837856 +0200,
39,39,0,R,M,return,5.64464610000141,None,None,0,,,,,,,,0,0,0,0,0,0,0,1,0,39,39,2,45.68348169999808,,,,,,,,,,,,,,45.668457200001285,45.68348169999808,45.68348169999808,46.18332889999874,46.68333480000001,46.66735920000065,None,0,,,,,,,,,,,,,,,7,001,2026-04-20_10h41.48.654,0back,,2025.1.1,60.00088801117306,2026-04-20 10h41.54.837856 +0200,
40,40,0,R,M,return,5.64464610000141,None,None,0,,,,,,,,0,0,0,0,0,0,0,1,0,40,40,8,46.68333480000001,,,,,,,,,,,,,,46.66749759999948,46.68333480000001,46.68333480000001,47.18333690000145,47.68334970000433,47.66696100000263,None,0,,,,,,,,,,,,,,,7,001,2026-04-20_10h41.48.654,0back,,2025.1.1,60.00088801117306,2026-04-20 10h41.54.837856 +0200,
41,41,0,R,A,return,5.64464610000141,None,None,0,,,,,,,,0,0,0,0,0,0,0,1,0,41,41,32,47.68334970000433,,,,,,,,,,,,,,47.66854389999935,47.68334970000433,47.68334970000433,48.183543500003,48.68338290000247,48.66694339999958,None,0,,,,,,,,,,,,,,,7,001,2026-04-20_10h41.48.654,0back,,2025.1.1,60.00088801117306,2026-04-20 10h41.54.837856 +0200,
42,42,0,R,A,return,5.64464610000141,None,None,0,,,,,,,,0,0,0,0,0,0,0,1,0,42,42,37,48.68338290000247,,,,,,,,,,,,,,48.667085200002475,48.68338290000247,48.68338290000247,49.18331810000382,49.683386299999256,49.66698349999933,None,0,,,,,,,,,,,,,,,7,001,2026-04-20_10h41.48.654,0back,,2025.1.1,60.00088801117306,2026-04-20 10h41.54.837856 +0200,
43,43,0,R,M,return,5.64464610000141,None,None,0,,,,,,,,0,0,0,0,0,0,0,1,0,43,43,7,49.683386299999256,,,,,,,,,,,,,,49.66831290000118,49.683386299999256,49.683386299999256,50.18329850000009,50.6834719000035,50.667037100000016,None,0,,,,,,,,,,,,,,,7,001,2026-04-20_10h41.48.654,0back,,2025.1.1,60.00088801117306,2026-04-20 10h41.54.837856 +0200,
44,44,0,R,R,return,5.64464610000141,None,space,1,0.491288600002008,0.14322879999963334,,,,,,0,0,0,0,0,0,0,1,0,44,44,17,50.6834719000035,,,,,,,,,,,,,,50.66930460000003,50.6834719000035,50.6834719000035,51.18330219999916,51.68332070000179,51.667050299998664,space,1,0.491288600002008,0.14322879999963334,,,,,,,,,,,,,7,001,2026-04-20_10h41.48.654,0back,,2025.1.1,60.00088801117306,2026-04-20 10h41.54.837856 +0200,
45,45,0,R,D,return,5.64464610000141,None,None,0,,,,,,,,0,0,0,0,0,0,0,1,0,45,45,48,51.68332070000179,,,,,,,,,,,,,,51.67056620000221,51.68332070000179,51.68332070000179,52.18350690000079,52.683280500001274,52.66704700000264,None,0,,,,,,,,,,,,,,,7,001,2026-04-20_10h41.48.654,0back,,2025.1.1,60.00088801117306,2026-04-20 10h41.54.837856 +0200,
46,46,0,R,R,return,5.64464610000141,None,space,1,0.4268744000000879,0.1440336000014213,,,,,,0,0,0,0,0,0,0,1,0,46,46,12,52.683280500001274,,,,,,,,,,,,,,52.669187799998326,52.683280500001274,52.683280500001274,53.18332620000001,53.68344120000256,53.66715619999741,space,1,0.4268744000000879,0.1440336000014213,,,,,,,,,,,,,7,001,2026-04-20_10h41.48.654,0back,,2025.1.1,60.00088801117306,2026-04-20 10h41.54.837856 +0200,
47,47,0,R,N,return,5.64464610000141,None,None,0,,,,,,,,0,0,0,0,0,0,0,1,0,47,47,27,53.68344120000256,,,,,,,,,,,,,,53.66843009999866,53.68344120000256,53.68344120000256,54.18331269999908,54.683308699997724,54.666957000001275,None,0,,,,,,,,,,,,,,,7,001,2026-04-20_10h41.48.654,0back,,2025.1.1,60.00088801117306,2026-04-20 10h41.54.837856 +0200,
48,48,0,R,N,return,5.64464610000141,None,None,0,,,,,,,,0,0,0,0,0,0,0,1,0,48,48,28,54.683308699997724,,,,,,,,,,,,,,54.66711249999935,54.683308699997724,54.683308699997724,55.183295000002545,55.68332019999798,55.66721200000029,None,0,,,,,,,,,,,,,,,7,001,2026-04-20_10h41.48.654,0back,,2025.1.1,60.00088801117306,2026-04-20 10h41.54.837856 +0200,
49,49,0,R,O,return,5.64464610000141,None,None,0,,,,,,,,0,0,0,0,0,0,0,1,0,49,49,45,55.68332019999798,,,,,,,,,,,,,,55.670903300000646,55.68332019999798,55.68332019999798,56.183378800000355,56.683412400001544,56.66711570000189,None,0,,,,,,,,,,,,,,,7,001,2026-04-20_10h41.48.654,0back,,2025.1.1,60.00088801117306,2026-04-20 10h41.54.837856 +0200,
0,0,0,R,,return,5.64464610000141,None,,,,,,,,,,0,0,0,0,0,0,0,1,,,,,,,,,,,,,,,,,,,,,,,,,,,,,,,,,,,,,,,,,7,001,2026-04-20_10h41.48.654,0back,,2025.1.1,60.00088801117306,2026-04-20 10h41.54.837856 +0200,
0,0,0,A,N,return,2.522563099999388,None,None,0,,,,,,,,0,0,0,0,0,1,1,2,0,0,0,23,59.233433699999296,,,,,56.67395889999898,56.683412400001544,56.683412400001544,56.683412400001544,56.683412400001544,59.21727529999771,return,2.522563099999388,None,59.224247999998624,59.233433699999296,59.233433699999296,59.73326639999868,60.23331209999742,60.21692410000105,None,0,,,,,,,,,,,,,,,7,001,2026-04-20_10h41.48.654,0back,,2025.1.1,60.00088801117306,2026-04-20 10h41.54.837856 +0200,
1,1,0,A,N,return,2.522563099999388,None,None,0,,,,,,,,0,0,0,0,0,1,1,2,0,1,1,25,60.23331209999742,,,,,,,,,,,,,,60.217083299998194,60.23331209999742,60.23331209999742,60.733335000004445,61.23323030000029,61.21725700000388,None,0,,,,,,,,,,,,,,,7,001,2026-04-20_10h41.48.654,0back,,2025.1.1,60.00088801117306,2026-04-20 10h41.54.837856 +0200,
2,2,0,A,A,return,2.522563099999388,None,space,1,0.3091862000001129,0.15110850000201026,,,,,,0,0,0,0,0,1,1,2,0,2,2,36,61.23323030000029,,,,,,,,,,,,,,61.21941230000084,61.23323030000029,61.23323030000029,61.73335799999768,62.233382899998105,62.216983700003766,space,1,0.3091862000001129,0.15110850000201026,,,,,,,,,,,,,7,001,2026-04-20_10h41.48.654,0back,,2025.1.1,60.00088801117306,2026-04-20 10h41.54.837856 +0200,
3,3,0,A,R,return,2.522563099999388,None,None,0,,,,,,,,0,0,0,0,0,1,1,2,0,3,3,9,62.233382899998105,,,,,,,,,,,,,,62.218306000002485,62.233382899998105,62.233382899998105,62.733424099998956,63.2333570999981,63.21715960000438,None,0,,,,,,,,,,,,,,,7,001,2026-04-20_10h41.48.654,0back,,2025.1.1,60.00088801117306,2026-04-20 10h41.54.837856 +0200,
4,4,0,A,N,return,2.522563099999388,None,None,0,,,,,,,,0,0,0,0,0,1,1,2,0,4,4,28,63.2333570999981,,,,,,,,,,,,,,63.21892189999926,63.2333570999981,63.2333570999981,63.73332680000021,64.23355250000168,64.21705810000276,None,0,,,,,,,,,,,,,,,7,001,2026-04-20_10h41.48.654,0back,,2025.1.1,60.00088801117306,2026-04-20 10h41.54.837856 +0200,
5,5,0,A,N,return,2.522563099999388,None,None,0,,,,,,,,0,0,0,0,0,1,1,2,0,5,5,20,64.23355250000168,,,,,,,,,,,,,,64.21719339999981,64.23355250000168,64.23355250000168,64.73339790000318,65.23333339999954,65.21698740000284,None,0,,,,,,,,,,,,,,,7,001,2026-04-20_10h41.48.654,0back,,2025.1.1,60.00088801117306,2026-04-20 10h41.54.837856 +0200,
6,6,0,A,Q,return,2.522563099999388,None,None,0,,,,,,,,0,0,0,0,0,1,1,2,0,6,6,47,65.23333339999954,,,,,,,,,,,,,,65.21827740000299,65.23333339999954,65.23333339999954,65.73327650000283,66.23336489999929,66.2168776000035,None,0,,,,,,,,,,,,,,,7,001,2026-04-20_10h41.48.654,0back,,2025.1.1,60.00088801117306,2026-04-20 10h41.54.837856 +0200,
7,7,0,A,A,return,2.522563099999388,None,space,1,0.3178620000035153,0.14332979999744566,,,,,,0,0,0,0,0,1,1,2,0,7,7,34,66.23336489999929,,,,,,,,,,,,,,66.2186772999994,66.23336489999929,66.23336489999929,66.73329580000427,67.23337809999794,67.216992200003,space,1,0.3178620000035153,0.14332979999744566,,,,,,,,,,,,,7,001,2026-04-20_10h41.48.654,0back,,2025.1.1,60.00088801117306,2026-04-20 10h41.54.837856 +0200,
8,8,0,A,A,return,2.522563099999388,None,space,1,0.45303570000396576,0.15983060000144178,,,,,,0,0,0,0,0,1,1,2,0,8,8,37,67.23337809999794,,,,,,,,,,,,,,67.21781980000378,67.23337809999794,67.23337809999794,67.73341459999938,68.23378059999959,68.21701739999844,space,1,0.45303570000396576,0.15983060000144178,,,,,,,,,,,,,7,001,2026-04-20_10h41.48.654,0back,,2025.1.1,60.00088801117306,2026-04-20 10h41.54.837856 +0200,
9,9,0,A,A,return,2.522563099999388,None,space,1,0.3729089999978896,0.13570890000119107,,,,,,0,0,0,0,0,1,1,2,0,9,9,35,68.23378059999959,,,,,,,,,,,,,,68.21795800000109,68.23378059999959,68.23378059999959,68.73335890000453,69.23333260000072,69.21704039999895,space,1,0.3729089999978896,0.13570890000119107,,,,,,,,,,,,,7,001,2026-04-20_10h41.48.654,0back,,2025.1.1,60.00088801117306,2026-04-20 10h41.54.837856 +0200,
10,10,0,A,C,return,2.522563099999388,None,None,0,,,,,,,,0,0,0,0,0,1,1,2,0,10,10,49,69.23333260000072,,,,,,,,,,,,,,69.21833460000198,69.23333260000072,69.23333260000072,69.73345920000429,70.23337770000217,70.21694710000156,None,0,,,,,,,,,,,,,,,7,001,2026-04-20_10h41.48.654,0back,,2025.1.1,60.00088801117306,2026-04-20 10h41.54.837856 +0200,
11,11,0,A,A,return,2.522563099999388,None,space,1,0.4046429999943939,0.12861130000237608,,,,,,0,0,0,0,0,1,1,2,0,11,11,31,70.23337770000217,,,,,,,,,,,,,,70.21883180000441,70.23337770000217,70.23337770000217,70.73335120000411,71.23330150000402,71.21712020000268,space,1,0.4046429999943939,0.12861130000237608,,,,,,,,,,,,,7,001,2026-04-20_10h41.48.654,0back,,2025.1.1,60.00088801117306,2026-04-20 10h41.54.837856 +0200,
12,12,0,A,A,return,2.522563099999388,None,space,1,0.356302100000903,0.15211759999510832,,,,,,0,0,0,0,0,1,1,2,0,12,12,29,71.23330150000402,,,,,,,,,,,,,,71.21789030000218,71.23330150000402,71.23330150000402,71.73340270000335,72.23327879999852,72.21703949999937,space,1,0.356302100000903,0.15211759999510832,,,,,,,,,,,,,7,001,2026-04-20_10h41.48.654,0back,,2025.1.1,60.00088801117306,2026-04-20 10h41.54.837856 +0200,
13,13,0,A,N,return,2.522563099999388,None,None,0,,,,,,,,0,0,0,0,0,1,1,2,0,13,13,21,72.23327879999852,,,,,,,,,,,,,,72.21838410000055,72.23327879999852,72.23327879999852,72.7333890000009,73.23333650000131,73.21687640000164,None,0,,,,,,,,,,,,,,,7,001,2026-04-20_10h41.48.654,0back,,2025.1.1,60.00088801117306,2026-04-20 10h41.54.837856 +0200,
14,14,0,A,N,return,2.522563099999388,None,None,0,,,,,,,,0,0,0,0,0,1,1,2,0,14,14,19,73.23333650000131,,,,,,,,,,,,,,73.21700750000309,73.23333650000131,73.23333650000131,73.73331110000436,74.23331830000097,74.21692959999928,None,0,,,,,,,,,,,,,,,7,001,2026-04-20_10h41.48.654,0back,,2025.1.1,60.00088801117306,2026-04-20 10h41.54.837856 +0200,
15,15,0,A,A,return,2.522563099999388,None,space,1,0.4125992000044789,0.11997639999754028,,,,,,0,0,0,0,0,1,1,2,0,15,15,32,74.23331830000097,,,,,,,,,,,,,,74.21889090000332,74.23331830000097,74.23331830000097,74.73329489999742,75.23328390000097,75.21704100000352,space,1,0.4125992000044789,0.11997639999754028,,,,,,,,,,,,,7,001,2026-04-20_10h41.48.654,0back,,2025.1.1,60.00088801117306,2026-04-20 10h41.54.837856 +0200,
16,16,0,A,A,return,2.522563099999388,None,space,1,0.42909050000162097,0.1274256000033347,,,,,,0,0,0,0,0,1,1,2,0,16,16,38,75.23328390000097,,,,,,,,,,,,,,75.21787870000117,75.23328390000097,75.23328390000097,75.73336420000123,76.23345970000082,76.21701960000064,space,1,0.42909050000162097,0.1274256000033347,,,,,,,,,,,,,7,001,2026-04-20_10h41.48.654,0back,,2025.1.1,60.00088801117306,2026-04-20 10h41.54.837856 +0200,
17,17,0,A,R,return,2.522563099999388,None,None,0,,,,,,,,0,0,0,0,0,1,1,2,0,17,17,16,76.23345970000082,,,,,,,,,,,,,,76.21854110000277,76.23345970000082,76.23345970000082,76.73338440000225,77.23333660000208,77.21704250000039,None,0,,,,,,,,,,,,,,,7,001,2026-04-20_10h41.48.654,0back,,2025.1.1,60.00088801117306,2026-04-20 10h41.54.837856 +0200,
18,18,0,A,E,return,2.522563099999388,None,None,0,,,,,,,,0,0,0,0,0,1,1,2,0,18,18,40,77.23333660000208,,,,,,,,,,,,,,77.21842330000072,77.23333660000208,77.23333660000208,77.73337490000267,78.23337339999853,78.21701520000352,None,0,,,,,,,,,,,,,,,7,001,2026-04-20_10h41.48.654,0back,,2025.1.1,60.00088801117306,2026-04-20 10h41.54.837856 +0200,
19,19,0,A,O,return,2.522563099999388,None,None,0,,,,,,,,0,0,0,0,0,1,1,2,0,19,19,45,78.23337339999853,,,,,,,,,,,,,,78.21824360000028,78.23337339999853,78.23337339999853,78.7334805999999,79.2333174000014,79.21712970000226,None,0,,,,,,,,,,,,,,,7,001,2026-04-20_10h41.48.654,0back,,2025.1.1,60.00088801117306,2026-04-20 10h41.54.837856 +0200,
20,20,0,A,Z,return,2.522563099999388,None,None,0,,,,,,,,0,0,0,0,0,1,1,2,0,20,20,39,79.2333174000014,,,,,,,,,,,,,,79.21871639999881,79.2333174000014,79.2333174000014,79.73343720000412,80.23340000000462,80.21701939999912,None,0,,,,,,,,,,,,,,,7,001,2026-04-20_10h41.48.654,0back,,2025.1.1,60.00088801117306,2026-04-20 10h41.54.837856 +0200,
21,21,0,A,M,return,2.522563099999388,None,None,0,,,,,,,,0,0,0,0,0,1,1,2,0,21,21,1,80.23340000000462,,,,,,,,,,,,,,80.21840850000444,80.23340000000462,80.23340000000462,80.73333039999852,81.23329840000224,81.21714439999778,None,0,,,,,,,,,,,,,,,7,001,2026-04-20_10h41.48.654,0back,,2025.1.1,60.00088801117306,2026-04-20 10h41.54.837856 +0200,
22,22,0,A,A,return,2.522563099999388,None,space,1,0.4524985000025481,0.14363520000188146,,,,,,0,0,0,0,0,1,1,2,0,22,22,33,81.23329840000224,,,,,,,,,,,,,,81.21921960000327,81.23329840000224,81.23329840000224,81.73461870000028,82.23350039999787,82.2169486999992,space,1,0.4524985000025481,0.14363520000188146,,,,,,,,,,,,,7,001,2026-04-20_10h41.48.654,0back,,2025.1.1,60.00088801117306,2026-04-20 10h41.54.837856 +0200,
23,23,0,A,R,return,2.522563099999388,None,None,0,,,,,,,,0,0,0,0,0,1,1,2,0,23,23,18,82.23350039999787,,,,,,,,,,,,,,82.21837780000351,82.23350039999787,82.23350039999787,82.73321700000088,83.23329190000368,83.21708480000234,None,0,,,,,,,,,,,,,,,7,001,2026-04-20_10h41.48.654,0back,,2025.1.1,60.00088801117306,2026-04-20 10h41.54.837856 +0200,
24,24,0,A,R,return,2.522563099999388,None,None,0,,,,,,,,0,0,0,0,0,1,1,2,0,24,24,13,83.23329190000368,,,,,,,,,,,,,,83.21724299999914,83.23329190000368,83.23329190000368,83.73334440000326,84.23375720000331,84.21716659999947,None,0,,,,,,,,,,,,,,,7,001,2026-04-20_10h41.48.654,0back,,2025.1.1,60.00088801117306,2026-04-20 10h41.54.837856 +0200,
25,25,0,A,N,return,2.522563099999388,None,None,0,,,,,,,,0,0,0,0,0,1,1,2,0,25,25,24,84.23375720000331,,,,,,,,,,,,,,84.21846039999946,84.23375720000331,84.23375720000331,84.73340740000276,85.23351399999956,85.21701910000411,None,0,,,,,,,,,,,,,,,7,001,2026-04-20_10h41.48.654,0back,,2025.1.1,60.00088801117306,2026-04-20 10h41.54.837856 +0200,
26,26,0,A,M,return,2.522563099999388,None,None,0,,,,,,,,0,0,0,0,0,1,1,2,0,26,26,2,85.23351399999956,,,,,,,,,,,,,,85.21884560000035,85.23351399999956,85.23351399999956,85.73332939999818,86.2332544000019,86.21689360000164,None,0,,,,,,,,,,,,,,,7,001,2026-04-20_10h41.48.654,0back,,2025.1.1,60.00088801117306,2026-04-20 10h41.54.837856 +0200,
27,27,0,A,T,return,2.522563099999388,None,None,0,,,,,,,,0,0,0,0,0,1,1,2,0,27,27,41,86.2332544000019,,,,,,,,,,,,,,86.21823160000349,86.2332544000019,86.2332544000019,86.73330400000123,87.23333270000148,87.21714120000252,None,0,,,,,,,,,,,,,,,7,001,2026-04-20_10h41.48.654,0back,,2025.1.1,60.00088801117306,2026-04-20 10h41.54.837856 +0200,
28,28,0,A,R,return,2.522563099999388,None,None,0,,,,,,,,0,0,0,0,0,1,1,2,0,28,28,11,87.23333270000148,,,,,,,,,,,,,,87.21860420000303,87.23333270000148,87.23333270000148,87.73333529999945,88.23335419999785,88.21702640000149,None,0,,,,,,,,,,,,,,,7,001,2026-04-20_10h41.48.654,0back,,2025.1.1,60.00088801117306,2026-04-20 10h41.54.837856 +0200,
29,29,0,A,M,return,2.522563099999388,None,None,0,,,,,,,,0,0,0,0,0,1,1,2,0,29,29,7,88.23335419999785,,,,,,,,,,,,,,88.21839239999827,88.23335419999785,88.23335419999785,88.73336930000369,89.23331139999937,89.21696030000021,None,0,,,,,,,,,,,,,,,7,001,2026-04-20_10h41.48.654,0back,,2025.1.1,60.00088801117306,2026-04-20 10h41.54.837856 +0200,
30,30,0,A,R,return,2.522563099999388,None,None,0,,,,,,,,0,0,0,0,0,1,1,2,0,30,30,12,89.23331139999937,,,,,,,,,,,,,,89.21825270000409,89.23331139999937,89.23331139999937,89.73324480000156,90.2332566000041,90.21695470000122,None,0,,,,,,,,,,,,,,,7,001,2026-04-20_10h41.48.654,0back,,2025.1.1,60.00088801117306,2026-04-20 10h41.54.837856 +0200,
31,31,0,A,M,return,2.522563099999388,None,None,0,,,,,,,,0,0,0,0,0,1,1,2,0,31,31,6,90.2332566000041,,,,,,,,,,,,,,90.2184985999993,90.2332566000041,90.2332566000041,90.73337049999827,,91.21755269999994,None,0,,,,,,,,,,,,,,,7,001,2026-04-20_10h41.48.654,0back,,2025.1.1,60.00088801117306,2026-04-20 10h41.54.837856 +0200,
32,32,0,A,N,return,2.522563099999388,None,None,0,,,,,,,,0,0,0,0,0,1,1,2,0,32,32,22,91.23359720000008,,,,,,,,,,,,,,91.21913370000402,91.23359720000008,91.23359720000008,91.733307100003,92.23334459999751,92.21694790000038,None,0,,,,,,,,,,,,,,,7,001,2026-04-20_10h41.48.654,0back,,2025.1.1,60.00088801117306,2026-04-20 10h41.54.837856 +0200,
33,33,0,A,N,return,2.522563099999388,None,None,0,,,,,,,,0,0,0,0,0,1,1,2,0,33,33,27,92.23334459999751,,,,,,,,,,,,,,92.21708840000065,92.23334459999751,92.23334459999751,92.73336410000047,93.23330970000097,93.21685840000282,None,0,,,,,,,,,,,,,,,7,001,2026-04-20_10h41.48.654,0back,,2025.1.1,60.00088801117306,2026-04-20 10h41.54.837856 +0200,
34,34,0,A,N,return,2.522563099999388,None,None,0,,,,,,,,0,0,0,0,0,1,1,2,0,34,34,26,93.23330970000097,,,,,,,,,,,,,,93.2169853000014,93.23330970000097,93.23330970000097,93.73349939999753,94.23332030000165,94.21699939999962,None,0,,,,,,,,,,,,,,,7,001,2026-04-20_10h41.48.654,0back,,2025.1.1,60.00088801117306,2026-04-20 10h41.54.837856 +0200,
35,35,0,A,M,return,2.522563099999388,None,None,0,,,,,,,,0,0,0,0,0,1,1,2,0,35,35,5,94.23332030000165,,,,,,,,,,,,,,94.21838530000241,94.23332030000165,94.23332030000165,94.7333534999998,95.23329779999767,95.21684200000163,None,0,,,,,,,,,,,,,,,7,001,2026-04-20_10h41.48.654,0back,,2025.1.1,60.00088801117306,2026-04-20 10h41.54.837856 +0200,
36,36,0,A,M,return,2.522563099999388,None,None,0,,,,,,,,0,0,0,0,0,1,1,2,0,36,36,8,95.23329779999767,,,,,,,,,,,,,,95.21696330000123,95.23329779999767,95.23329779999767,95.73323879999953,96.23445390000416,96.21703320000233,None,0,,,,,,,,,,,,,,,7,001,2026-04-20_10h41.48.654,0back,,2025.1.1,60.00088801117306,2026-04-20 10h41.54.837856 +0200,
37,37,0,A,A,return,2.522563099999388,None,space,1,0.38780969999788795,0.1837145999961649,,,,,,0,0,0,0,0,1,1,2,0,37,37,30,96.23445390000416,,,,,,,,,,,,,,96.21931670000049,96.23445390000416,96.23445390000416,96.73338810000132,97.23347160000412,97.2171787000043,space,1,0.38780969999788795,0.1837145999961649,,,,,,,,,,,,,7,001,2026-04-20_10h41.48.654,0back,,2025.1.1,60.00088801117306,2026-04-20 10h41.54.837856 +0200,
38,38,0,A,R,return,2.522563099999388,None,None,0,,,,,,,,0,0,0,0,0,1,1,2,0,38,38,10,97.23347160000412,,,,,,,,,,,,,,97.21854120000353,97.23347160000412,97.23347160000412,97.7334525000042,98.23349299999973,98.21717160000117,None,0,,,,,,,,,,,,,,,7,001,2026-04-20_10h41.48.654,0back,,2025.1.1,60.00088801117306,2026-04-20 10h41.54.837856 +0200,
39,39,0,A,I,return,2.522563099999388,None,None,0,,,,,,,,0,0,0,0,0,1,1,2,0,39,39,44,98.23349299999973,,,,,,,,,,,,,,98.21852349999972,98.23349299999973,98.23349299999973,98.73341990000335,99.23335429999861,99.21715039999981,None,0,,,,,,,,,,,,,,,7,001,2026-04-20_10h41.48.654,0back,,2025.1.1,60.00088801117306,2026-04-20 10h41.54.837856 +0200,
40,40,0,A,M,return,2.522563099999388,None,None,0,,,,,,,,0,0,0,0,0,1,1,2,0,40,40,3,99.23335429999861,,,,,,,,,,,,,,99.21859499999846,99.23335429999861,99.23335429999861,99.73344250000082,100.23333899999852,100.21722410000075,None,0,,,,,,,,,,,,,,,7,001,2026-04-20_10h41.48.654,0back,,2025.1.1,60.00088801117306,2026-04-20 10h41.54.837856 +0200,
41,41,0,A,D,return,2.522563099999388,None,None,0,,,,,,,,0,0,0,0,0,1,1,2,0,41,41,48,100.23333899999852,,,,,,,,,,,,,,100.21860010000091,100.23333899999852,100.23333899999852,100.73345939999854,101.2333209999997,101.21694330000173,None,0,,,,,,,,,,,,,,,7,001,2026-04-20_10h41.48.654,0back,,2025.1.1,60.00088801117306,2026-04-20 10h41.54.837856 +0200,
42,42,0,A,M,return,2.522563099999388,None,None,0,,,,,,,,0,0,0,0,0,1,1,2,0,42,42,0,101.2333209999997,,,,,,,,,,,,,,101.21831480000401,101.2333209999997,101.2333209999997,101.73344509999879,102.23338820000208,102.217040800002,None,0,,,,,,,,,,,,,,,7,001,2026-04-20_10h41.48.654,0back,,2025.1.1,60.00088801117306,2026-04-20 10h41.54.837856 +0200,
43,43,0,A,M,return,2.522563099999388,None,None,0,,,,,,,,0,0,0,0,0,1,1,2,0,43,43,4,102.23338820000208,,,,,,,,,,,,,,102.21721940000134,102.23338820000208,102.23338820000208,102.73346460000175,103.23343639999803,103.21724630000244,None,0,,,,,,,,,,,,,,,7,001,2026-04-20_10h41.48.654,0back,,2025.1.1,60.00088801117306,2026-04-20 10h41.54.837856 +0200,
44,44,0,A,R,return,2.522563099999388,None,None,0,,,,,,,,0,0,0,0,0,1,1,2,0,44,44,14,103.23343639999803,,,,,,,,,,,,,,103.21873690000211,103.23343639999803,103.23343639999803,103.73346480000328,104.23340789999929,104.21712449999904,None,0,,,,,,,,,,,,,,,7,001,2026-04-20_10h41.48.654,0back,,2025.1.1,60.00088801117306,2026-04-20 10h41.54.837856 +0200,
45,45,0,A,P,return,2.522563099999388,None,None,0,,,,,,,,0,0,0,0,0,1,1,2,0,45,45,46,104.23340789999929,,,,,,,,,,,,,,104.21847200000047,104.23340789999929,104.23340789999929,104.73331840000174,105.2333593000003,105.21703530000377,None,0,,,,,,,,,,,,,,,7,001,2026-04-20_10h41.48.654,0back,,2025.1.1,60.00088801117306,2026-04-20 10h41.54.837856 +0200,
46,46,0,A,U,return,2.522563099999388,None,None,0,,,,,,,,0,0,0,0,0,1,1,2,0,46,46,43,105.2333593000003,,,,,,,,,,,,,,105.21869770000194,105.2333593000003,105.2333593000003,105.73333519999869,106.23348160000023,106.21706190000259,None,0,,,,,,,,,,,,,,,7,001,2026-04-20_10h41.48.654,0back,,2025.1.1,60.00088801117306,2026-04-20 10h41.54.837856 +0200,
47,47,0,A,R,return,2.522563099999388,None,None,0,,,,,,,,0,0,0,0,0,1,1,2,0,47,47,17,106.23348160000023,,,,,,,,,,,,,,106.21849739999743,106.23348160000023,106.23348160000023,106.73341620000429,107.23341500000242,107.21702209999785,None,0,,,,,,,,,,,,,,,7,001,2026-04-20_10h41.48.654,0back,,2025.1.1,60.00088801117306,2026-04-20 10h41.54.837856 +0200,
48,48,0,A,Y,return,2.522563099999388,None,None,0,,,,,,,,0,0,0,0,0,1,1,2,0,48,48,42,107.23341500000242,,,,,,,,,,,,,,107.21844570000394,107.23341500000242,107.23341500000242,107.73340029999963,108.2334125999987,108.21702750000259,None,0,,,,,,,,,,,,,,,7,001,2026-04-20_10h41.48.654,0back,,2025.1.1,60.00088801117306,2026-04-20 10h41.54.837856 +0200,
49,49,0,A,R,return,2.522563099999388,None,None,0,,,,,,,,0,0,0,0,0,1,1,2,0,49,49,15,108.2334125999987,,,,,,,,,,,,,,108.21845269999903,108.2334125999987,108.2334125999987,108.7332791000008,109.23342409999896,109.21707150000293,None,0,,,,,,,,,,,,,,,7,001,2026-04-20_10h41.48.654,0back,,2025.1.1,60.00088801117306,2026-04-20 10h41.54.837856 +0200,
1,1,0,A,,return,2.522563099999388,None,,,,,,,,,,0,0,0,0,0,1,1,2,,,,,,,,,,,,,,,,,,,,,,,,,,,,,,,,,,,,,,,,,7,001,2026-04-20_10h41.48.654,0back,,2025.1.1,60.00088801117306,2026-04-20 10h41.54.837856 +0200,
0,0,0,N,M,return,2.8521907000031206,None,None,0,,,,,,,,0,0,0,0,0,2,2,3,0,0,0,2,112.11691180000344,,,,,109.22336119999818,109.23342409999896,109.23342409999896,109.23342409999896,109.23342409999896,112.100646400002,return,2.8521907000031206,None,112.10724219999975,112.11691180000344,112.11691180000344,112.61679770000046,113.11687569999776,113.10028269999748,None,0,,,,,,,,,,,,,,,7,001,2026-04-20_10h41.48.654,0back,,2025.1.1,60.00088801117306,2026-04-20 10h41.54.837856 +0200,
1,1,0,N,R,return,2.8521907000031206,None,None,0,,,,,,,,0,0,0,0,0,2,2,3,0,1,1,16,113.11687569999776,,,,,,,,,,,,,,113.10151849999966,113.11687569999776,113.11687569999776,113.6168445000003,114.1167820000046,114.10055840000132,None,0,,,,,,,,,,,,,,,7,001,2026-04-20_10h41.48.654,0back,,2025.1.1,60.00088801117306,2026-04-20 10h41.54.837856 +0200,
2,2,0,N,N,return,2.8521907000031206,None,space,1,0.5132541000057245,0.15203479999763658,,,,,,0,0,0,0,0,2,2,3,0,2,2,24,114.1167820000046,,,,,,,,,,,,,,114.10276929999964,114.1167820000046,114.1167820000046,114.61700089999795,115.11692179999955,115.10046249999868,space,1,0.5132541000057245,0.15203479999763658,,,,,,,,,,,,,7,001,2026-04-20_10h41.48.654,0back,,2025.1.1,60.00088801117306,2026-04-20 10h41.54.837856 +0200,
3,3,0,N,A,return,2.8521907000031206,None,None,0,,,,,,,,0,0,0,0,0,2,2,3,0,3,3,31,115.11692179999955,,,,,,,,,,,,,,115.10188120000385,115.11692179999955,115.11692179999955,115.61697680000361,116.11684529999911,116.10075660000439,None,0,,,,,,,,,,,,,,,7,001,2026-04-20_10h41.48.654,0back,,2025.1.1,60.00088801117306,2026-04-20 10h41.54.837856 +0200,
4,4,0,N,N,return,2.8521907000031206,None,space,1,0.3850957000031485,0.1353668000010657,,,,,,0,0,0,0,0,2,2,3,0,4,4,21,116.11684529999911,,,,,,,,,,,,,,116.10290769999847,116.11684529999911,116.11684529999911,116.61673059999885,117.1168347999992,117.10069510000176,space,1,0.3850957000031485,0.1353668000010657,,,,,,,,,,,,,7,001,2026-04-20_10h41.48.654,0back,,2025.1.1,60.00088801117306,2026-04-20 10h41.54.837856 +0200,
5,5,0,N,M,return,2.8521907000031206,None,None,0,,,,,,,,0,0,0,0,0,2,2,3,0,5,5,4,117.1168347999992,,,,,,,,,,,,,,117.10237490000145,117.1168347999992,117.1168347999992,117.61689820000174,118.11680970000452,118.10045930000342,None,0,,,,,,,,,,,,,,,7,001,2026-04-20_10h41.48.654,0back,,2025.1.1,60.00088801117306,2026-04-20 10h41.54.837856 +0200,
6,6,0,N,N,return,2.8521907000031206,None,space,1,0.4331213000041316,0.11951910000061616,,,,,,0,0,0,0,0,2,2,3,0,6,6,19,118.11680970000452,,,,,,,,,,,,,,118.10236879999866,118.11680970000452,118.11680970000452,118.61696469999879,119.11685849999776,119.10044170000037,space,1,0.4331213000041316,0.11951910000061616,,,,,,,,,,,,,7,001,2026-04-20_10h41.48.654,0back,,2025.1.1,60.00088801117306,2026-04-20 10h41.54.837856 +0200,
7,7,0,N,P,return,2.8521907000031206,None,None,0,,,,,,,,0,0,0,0,0,2,2,3,0,7,7,46,119.11685849999776,,,,,,,,,,,,,,119.10191090000444,119.11685849999776,119.11685849999776,119.61674530000164,120.11678979999851,120.10040899999876,None,0,,,,,,,,,,,,,,,7,001,2026-04-20_10h41.48.654,0back,,2025.1.1,60.00088801117306,2026-04-20 10h41.54.837856 +0200,
8,8,0,N,R,return,2.8521907000031206,None,None,0,,,,,,,,0,0,0,0,0,2,2,3,0,8,8,18,120.11678979999851,,,,,,,,,,,,,,120.10260450000351,120.11678979999851,120.11678979999851,120.61679620000359,121.11688690000301,121.10029290000239,None,0,,,,,,,,,,,,,,,7,001,2026-04-20_10h41.48.654,0back,,2025.1.1,60.00088801117306,2026-04-20 10h41.54.837856 +0200,
9,9,0,N,M,return,2.8521907000031206,None,None,0,,,,,,,,0,0,0,0,0,2,2,3,0,9,9,0,121.11688690000301,,,,,,,,,,,,,,121.10154850000254,121.11688690000301,121.11688690000301,121.61679220000224,122.11687789999996,122.1002640000006,None,0,,,,,,,,,,,,,,,7,001,2026-04-20_10h41.48.654,0back,,2025.1.1,60.00088801117306,2026-04-20 10h41.54.837856 +0200,
10,10,0,N,A,return,2.8521907000031206,None,None,0,,,,,,,,0,0,0,0,0,2,2,3,0,10,10,35,122.11687789999996,,,,,,,,,,,,,,122.10164010000153,122.11687789999996,122.11687789999996,122.61686030000419,123.11687410000013,123.10026769999968,None,0,,,,,,,,,,,,,,,7,001,2026-04-20_10h41.48.654,0back,,2025.1.1,60.00088801117306,2026-04-20 10h41.54.837856 +0200,
11,11,0,N,N,return,2.8521907000031206,None,space,1,0.4339906999957748,0.15148880000197096,,,,,,0,0,0,0,0,2,2,3,0,11,11,23,123.11687410000013,,,,,,,,,,,,,,123.1021722000005,123.11687410000013,123.11687410000013,123.61705880000227,124.11682360000123,124.10044760000164,space,1,0.4339906999957748,0.15148880000197096,,,,,,,,,,,,,7,001,2026-04-20_10h41.48.654,0back,,2025.1.1,60.00088801117306,2026-04-20 10h41.54.837856 +0200,
12,12,0,N,O,return,2.8521907000031206,None,None,0,,,,,,,,0,0,0,0,0,2,2,3,0,12,12,45,124.11682360000123,,,,,,,,,,,,,,124.10176320000028,124.11682360000123,124.11682360000123,124.61718649999966,125.11687959999836,125.1001963000017,None,0,,,,,,,,,,,,,,,7,001,2026-04-20_10h41.48.654,0back,,2025.1.1,60.00088801117306,2026-04-20 10h41.54.837856 +0200,
13,13,0,N,N,return,2.8521907000031206,None,space,1,0.4256405999985873,0.14389870000013616,,,,,,0,0,0,0,0,2,2,3,0,13,13,27,125.11687959999836,,,,,,,,,,,,,,125.10232640000322,125.11687959999836,125.11687959999836,125.61680419999902,126.11674530000164,126.10039590000088,space,1,0.4256405999985873,0.14389870000013616,,,,,,,,,,,,,7,001,2026-04-20_10h41.48.654,0back,,2025.1.1,60.00088801117306,2026-04-20 10h41.54.837856 +0200,
14,14,0,N,N,return,2.8521907000031206,None,space,1,0.5053817000007257,0.13613229999464238,,,,,,0,0,0,0,0,2,2,3,0,14,14,20,126.11674530000164,,,,,,,,,,,,,,126.10115999999834,126.11674530000164,126.11674530000164,126.61682000000292,127.11689019999903,127.10044519999792,space,1,0.5053817000007257,0.13613229999464238,,,,,,,,,,,,,7,001,2026-04-20_10h41.48.654,0back,,2025.1.1,60.00088801117306,2026-04-20 10h41.54.837856 +0200,
15,15,0,N,A,return,2.8521907000031206,None,None,0,,,,,,,,0,0,0,0,0,2,2,3,0,15,15,37,127.11689019999903,,,,,,,,,,,,,,127.10251050000079,127.11689019999903,127.11689019999903,127.6168691999992,128.11680580000393,128.10026500000095,None,0,,,,,,,,,,,,,,,7,001,2026-04-20_10h41.48.654,0back,,2025.1.1,60.00088801117306,2026-04-20 10h41.54.837856 +0200,
16,16,0,N,Z,return,2.8521907000031206,None,None,0,,,,,,,,0,0,0,0,0,2,2,3,0,16,16,39,128.11680580000393,,,,,,,,,,,,,,128.10162539999874,128.11680580000393,128.11680580000393,128.61682020000444,129.11684329999844,129.1003275999974,None,0,,,,,,,,,,,,,,,7,001,2026-04-20_10h41.48.654,0back,,2025.1.1,60.00088801117306,2026-04-20 10h41.54.837856 +0200,
17,17,0,N,M,return,2.8521907000031206,None,None,0,,,,,,,,0,0,0,0,0,2,2,3,0,17,17,3,129.11684329999844,,,,,,,,,,,,,,129.10174299999926,129.11684329999844,129.11684329999844,129.61686470000132,130.11679659999936,130.10027110000374,None,0,,,,,,,,,,,,,,,7,001,2026-04-20_10h41.48.654,0back,,2025.1.1,60.00088801117306,2026-04-20 10h41.54.837856 +0200,
18,18,0,N,A,return,2.8521907000031206,None,None,0,,,,,,,,0,0,0,0,0,2,2,3,0,18,18,33,130.11679659999936,,,,,,,,,,,,,,130.1015918999983,130.11679659999936,130.11679659999936,130.61685650000436,131.11686249999912,131.10027840000112,None,0,,,,,,,,,,,,,,,7,001,2026-04-20_10h41.48.654,0back,,2025.1.1,60.00088801117306,2026-04-20 10h41.54.837856 +0200,
19,19,0,N,N,return,2.8521907000031206,None,space,1,0.4095725000006496,0.1599426999964635,,,,,,0,0,0,0,0,2,2,3,0,19,19,25,131.11686249999912,,,,,,,,,,,,,,131.10219789999974,131.11686249999912,131.11686249999912,131.61694279999938,132.11687630000233,132.1004305000024,space,1,0.4095725000006496,0.1599426999964635,,,,,,,,,,,,,7,001,2026-04-20_10h41.48.654,0back,,2025.1.1,60.00088801117306,2026-04-20 10h41.54.837856 +0200,
20,20,0,N,Y,return,2.8521907000031206,None,None,0,,,,,,,,0,0,0,0,0,2,2,3,0,20,20,42,132.11687630000233,,,,,,,,,,,,,,132.10174030000053,132.11687630000233,132.11687630000233,132.6168736000036,133.11682460000156,133.10037079999893,None,0,,,,,,,,,,,,,,,7,001,2026-04-20_10h41.48.654,0back,,2025.1.1,60.00088801117306,2026-04-20 10h41.54.837856 +0200,
21,21,0,N,I,return,2.8521907000031206,None,None,0,,,,,,,,0,0,0,0,0,2,2,3,0,21,21,44,133.11682460000156,,,,,,,,,,,,,,133.1015711,133.11682460000156,133.11682460000156,133.61688020000292,134.116809500003,134.10057770000276,None,0,,,,,,,,,,,,,,,7,001,2026-04-20_10h41.48.654,0back,,2025.1.1,60.00088801117306,2026-04-20 10h41.54.837856 +0200,
22,22,0,N,A,return,2.8521907000031206,None,None,0,,,,,,,,0,0,0,0,0,2,2,3,0,22,22,32,134.116809500003,,,,,,,,,,,,,,134.10212930000125,134.116809500003,134.116809500003,134.6167618000036,135.11674940000375,135.1003101000024,None,0,,,,,,,,,,,,,,,7,001,2026-04-20_10h41.48.654,0back,,2025.1.1,60.00088801117306,2026-04-20 10h41.54.837856 +0200,
23,23,0,N,R,return,2.8521907000031206,None,None,0,,,,,,,,0,0,0,0,0,2,2,3,0,23,23,11,135.11674940000375,,,,,,,,,,,,,,135.10162280000077,135.11674940000375,135.11674940000375,135.61686709999776,136.11691560000327,136.10026970000035,None,0,,,,,,,,,,,,,,,7,001,2026-04-20_10h41.48.654,0back,,2025.1.1,60.00088801117306,2026-04-20 10h41.54.837856 +0200,
24,24,0,N,M,return,2.8521907000031206,None,None,0,,,,,,,,0,0,0,0,0,2,2,3,0,24,24,1,136.11691560000327,,,,,,,,,,,,,,136.10174820000248,136.11691560000327,136.11691560000327,136.61688320000394,137.11732309999934,137.1003112000035,None,0,,,,,,,,,,,,,,,7,001,2026-04-20_10h41.48.654,0back,,2025.1.1,60.00088801117306,2026-04-20 10h41.54.837856 +0200,
25,25,0,N,M,return,2.8521907000031206,None,None,0,,,,,,,,0,0,0,0,0,2,2,3,0,25,25,6,137.11732309999934,,,,,,,,,,,,,,137.10046460000012,137.11732309999934,137.11732309999934,137.61685759999818,138.11682580000343,138.1003098000001,None,0,,,,,,,,,,,,,,,7,001,2026-04-20_10h41.48.654,0back,,2025.1.1,60.00088801117306,2026-04-20 10h41.54.837856 +0200,
26,26,0,N,E,return,2.8521907000031206,None,None,0,,,,,,,,0,0,0,0,0,2,2,3,0,26,26,40,138.11682580000343,,,,,,,,,,,,,,138.1015494000021,138.11682580000343,138.11682580000343,138.61688520000462,139.11680270000215,139.10028920000332,None,0,,,,,,,,,,,,,,,7,001,2026-04-20_10h41.48.654,0back,,2025.1.1,60.00088801117306,2026-04-20 10h41.54.837856 +0200,
27,27,0,N,R,return,2.8521907000031206,None,None,0,,,,,,,,0,0,0,0,0,2,2,3,0,27,27,10,139.11680270000215,,,,,,,,,,,,,,139.10153379999974,139.11680270000215,139.11680270000215,139.61676740000257,140.11685959999886,140.10035680000146,None,0,,,,,,,,,,,,,,,7,001,2026-04-20_10h41.48.654,0back,,2025.1.1,60.00088801117306,2026-04-20 10h41.54.837856 +0200,
28,28,0,N,A,return,2.8521907000031206,None,None,0,,,,,,,,0,0,0,0,0,2,2,3,0,28,28,34,140.11685959999886,,,,,,,,,,,,,,140.1017114999995,140.11685959999886,140.11685959999886,140.6168248000031,141.11685109999962,141.1003219999984,None,0,,,,,,,,,,,,,,,7,001,2026-04-20_10h41.48.654,0back,,2025.1.1,60.00088801117306,2026-04-20 10h41.54.837856 +0200,
29,29,0,N,R,return,2.8521907000031206,None,None,0,,,,,,,,0,0,0,0,0,2,2,3,0,29,29,9,141.11685109999962,,,,,,,,,,,,,,141.10200939999777,141.11685109999962,141.11685109999962,141.61735860000044,142.11750659999961,142.1003148000018,None,0,,,,,,,,,,,,,,,7,001,2026-04-20_10h41.48.654,0back,,2025.1.1,60.00088801117306,2026-04-20 10h41.54.837856 +0200,
30,30,0,N,N,return,2.8521907000031206,None,space,1,0.4726682999971672,0.1598320999983116,,,,,,0,0,0,0,0,2,2,3,0,30,30,22,142.11750659999961,,,,,,,,,,,,,,142.10220809999737,142.11750659999961,142.11750659999961,142.61681830000452,143.11693680000462,143.10043420000147,space,1,0.4726682999971672,0.1598320999983116,,,,,,,,,,,,,7,001,2026-04-20_10h41.48.654,0back,,2025.1.1,60.00088801117306,2026-04-20 10h41.54.837856 +0200,
31,31,0,N,C,return,2.8521907000031206,None,None,0,,,,,,,,0,0,0,0,0,2,2,3,0,31,31,49,143.11693680000462,,,,,,,,,,,,,,143.10218000000168,143.11693680000462,143.11693680000462,143.6168034000002,144.11751899999945,144.10028299999976,None,0,,,,,,,,,,,,,,,7,001,2026-04-20_10h41.48.654,0back,,2025.1.1,60.00088801117306,2026-04-20 10h41.54.837856 +0200,
32,32,0,N,N,return,2.8521907000031206,None,space,1,0.4329520000028424,0.15179750000243075,,,,,,0,0,0,0,0,2,2,3,0,32,32,26,144.11751899999945,,,,,,,,,,,,,,144.1022671000028,144.11751899999945,144.11751899999945,144.616941100001,145.1168652999986,145.10034240000095,space,1,0.4329520000028424,0.15179750000243075,,,,,,,,,,,,,7,001,2026-04-20_10h41.48.654,0back,,2025.1.1,60.00088801117306,2026-04-20 10h41.54.837856 +0200,
33,33,0,N,R,return,2.8521907000031206,None,None,0,,,,,,,,0,0,0,0,0,2,2,3,0,33,33,14,145.1168652999986,,,,,,,,,,,,,,145.10165830000187,145.1168652999986,145.1168652999986,145.61684049999894,146.11678029999894,146.10027380000247,None,0,,,,,,,,,,,,,,,7,001,2026-04-20_10h41.48.654,0back,,2025.1.1,60.00088801117306,2026-04-20 10h41.54.837856 +0200,
34,34,0,N,M,return,2.8521907000031206,None,None,0,,,,,,,,0,0,0,0,0,2,2,3,0,34,34,5,146.11678029999894,,,,,,,,,,,,,,146.1015864000001,146.11678029999894,146.11678029999894,146.61684190000233,147.11692900000344,147.10041289999936,None,0,,,,,,,,,,,,,,,7,001,2026-04-20_10h41.48.654,0back,,2025.1.1,60.00088801117306,2026-04-20 10h41.54.837856 +0200,
35,35,0,N,A,return,2.8521907000031206,None,None,0,,,,,,,,0,0,0,0,0,2,2,3,0,35,35,36,147.11692900000344,,,,,,,,,,,,,,147.10168530000374,147.11692900000344,147.11692900000344,147.61681600000156,148.11689579999802,148.10027809999883,None,0,,,,,,,,,,,,,,,7,001,2026-04-20_10h41.48.654,0back,,2025.1.1,60.00088801117306,2026-04-20 10h41.54.837856 +0200,
36,36,0,N,T,return,2.8521907000031206,None,None,0,,,,,,,,0,0,0,0,0,2,2,3,0,36,36,41,148.11689579999802,,,,,,,,,,,,,,148.10188750000088,148.11689579999802,148.11689579999802,148.61698849999812,149.1168480999986,149.10015900000144,None,0,,,,,,,,,,,,,,,7,001,2026-04-20_10h41.48.654,0back,,2025.1.1,60.00088801117306,2026-04-20 10h41.54.837856 +0200,
37,37,0,N,D,return,2.8521907000031206,None,None,0,,,,,,,,0,0,0,0,0,2,2,3,0,37,37,48,149.1168480999986,,,,,,,,,,,,,,149.10141529999964,149.1168480999986,149.1168480999986,149.61677960000088,150.11691260000225,150.10036080000282,None,0,,,,,,,,,,,,,,,7,001,2026-04-20_10h41.48.654,0back,,2025.1.1,60.00088801117306,2026-04-20 10h41.54.837856 +0200,
38,38,0,N,R,return,2.8521907000031206,None,None,0,,,,,,,,0,0,0,0,0,2,2,3,0,38,38,13,150.11691260000225,,,,,,,,,,,,,,150.1017303999979,150.11691260000225,150.11691260000225,150.61686719999852,151.11678770000435,151.100308699999,None,0,,,,,,,,,,,,,,,7,001,2026-04-20_10h41.48.654,0back,,2025.1.1,60.00088801117306,2026-04-20 10h41.54.837856 +0200,
39,39,0,N,R,return,2.8521907000031206,None,None,0,,,,,,,,0,0,0,0,0,2,2,3,0,39,39,15,151.11678770000435,,,,,,,,,,,,,,151.10043779999978,151.11678770000435,151.11678770000435,151.61684349999996,152.11674660000426,152.10037990000274,None,0,,,,,,,,,,,,,,,7,001,2026-04-20_10h41.48.654,0back,,2025.1.1,60.00088801117306,2026-04-20 10h41.54.837856 +0200,
40,40,0,N,A,return,2.8521907000031206,None,None,0,,,,,,,,0,0,0,0,0,2,2,3,0,40,40,30,152.11674660000426,,,,,,,,,,,,,,152.10192639999877,152.11674660000426,152.11674660000426,152.61671609999757,153.11671480000223,153.100291499999,None,0,,,,,,,,,,,,,,,7,001,2026-04-20_10h41.48.654,0back,,2025.1.1,60.00088801117306,2026-04-20 10h41.54.837856 +0200,
41,41,0,N,N,return,2.8521907000031206,None,space,1,0.44172919999982696,0.16097779999836348,,,,,,0,0,0,0,0,2,2,3,0,41,41,28,153.11671480000223,,,,,,,,,,,,,,153.10236270000314,153.11671480000223,153.11671480000223,153.61683830000402,154.11694010000065,154.10025719999976,space,1,0.44172919999982696,0.16097779999836348,,,,,,,,,,,,,7,001,2026-04-20_10h41.48.654,0back,,2025.1.1,60.00088801117306,2026-04-20 10h41.54.837856 +0200,
42,42,0,N,A,return,2.8521907000031206,None,None,0,,,,,,,,0,0,0,0,0,2,2,3,0,42,42,29,154.11694010000065,,,,,,,,,,,,,,154.1015841000044,154.11694010000065,154.11694010000065,154.616866700002,155.11683600000106,155.1002542999995,None,0,,,,,,,,,,,,,,,7,001,2026-04-20_10h41.48.654,0back,,2025.1.1,60.00088801117306,2026-04-20 10h41.54.837856 +0200,
43,43,0,N,Q,return,2.8521907000031206,None,None,0,,,,,,,,0,0,0,0,0,2,2,3,0,43,43,47,155.11683600000106,,,,,,,,,,,,,,155.1014423000015,155.11683600000106,155.11683600000106,155.6168792000026,156.11679860000004,156.10052240000368,None,0,,,,,,,,,,,,,,,7,001,2026-04-20_10h41.48.654,0back,,2025.1.1,60.00088801117306,2026-04-20 10h41.54.837856 +0200,
44,44,0,N,R,return,2.8521907000031206,None,None,0,,,,,,,,0,0,0,0,0,2,2,3,0,44,44,12,156.11679860000004,,,,,,,,,,,,,,156.10186460000114,156.11679860000004,156.11679860000004,156.6167673000018,157.1168034000002,157.10033600000315,None,0,,,,,,,,,,,,,,,7,001,2026-04-20_10h41.48.654,0back,,2025.1.1,60.00088801117306,2026-04-20 10h41.54.837856 +0200,
45,45,0,N,M,return,2.8521907000031206,None,None,0,,,,,,,,0,0,0,0,0,2,2,3,0,45,45,7,157.1168034000002,,,,,,,,,,,,,,157.10162420000415,157.1168034000002,157.1168034000002,157.61683110000013,158.11702810000133,158.10043099999893,None,0,,,,,,,,,,,,,,,7,001,2026-04-20_10h41.48.654,0back,,2025.1.1,60.00088801117306,2026-04-20 10h41.54.837856 +0200,
46,46,0,N,A,return,2.8521907000031206,None,None,0,,,,,,,,0,0,0,0,0,2,2,3,0,46,46,38,158.11702810000133,,,,,,,,,,,,,,158.10199529999954,158.11702810000133,158.11702810000133,158.61677890000283,159.11685230000148,159.10026910000306,None,0,,,,,,,,,,,,,,,7,001,2026-04-20_10h41.48.654,0back,,2025.1.1,60.00088801117306,2026-04-20 10h41.54.837856 +0200,
47,47,0,N,M,return,2.8521907000031206,None,None,0,,,,,,,,0,0,0,0,0,2,2,3,0,47,47,8,159.11685230000148,,,,,,,,,,,,,,159.10178599999927,159.11685230000148,159.11685230000148,159.61679710000317,160.1168278000041,160.10019940000348,None,0,,,,,,,,,,,,,,,7,001,2026-04-20_10h41.48.654,0back,,2025.1.1,60.00088801117306,2026-04-20 10h41.54.837856 +0200,
48,48,0,N,R,return,2.8521907000031206,None,None,0,,,,,,,,0,0,0,0,0,2,2,3,0,48,48,17,160.1168278000041,,,,,,,,,,,,,,160.101462300001,160.1168278000041,160.1168278000041,160.61744899999758,161.1168475000013,161.10029989999748,None,0,,,,,,,,,,,,,,,7,001,2026-04-20_10h41.48.654,0back,,2025.1.1,60.00088801117306,2026-04-20 10h41.54.837856 +0200,
49,49,0,N,U,return,2.8521907000031206,None,None,0,,,,,,,,0,0,0,0,0,2,2,3,0,49,49,43,161.1168475000013,,,,,,,,,,,,,,161.10181829999783,161.1168475000013,161.1168475000013,161.61678309999843,162.11680870000419,162.10030830000323,None,0,,,,,,,,,,,,,,,7,001,2026-04-20_10h41.48.654,0back,,2025.1.1,60.00088801117306,2026-04-20 10h41.54.837856 +0200,
2,2,0,N,,return,2.8521907000031206,None,,,,,,,,,,0,0,0,0,0,2,2,3,,,,,,,,,,,,,,,,,,,,,,,,,,,,,,,,,,,,,,,,,7,001,2026-04-20_10h41.48.654,0back,,2025.1.1,60.00088801117306,2026-04-20 10h41.54.837856 +0200,
0,0,0,M,A,return,1.6091282999987016,None,None,0,,,,,,,,0,0,0,0,0,3,3,0,0,0,0,38,163.7501304000034,,,,,162.1062213000041,162.11680870000419,162.11680870000419,162.11680870000419,162.11680870000419,163.73359770000388,return,1.6091282999987016,None,163.73965229999885,163.7501304000034,163.7501304000034,164.2501020999989,164.7502231000035,164.73346180000226,None,0,,,,,,,,,,,,,,,7,001,2026-04-20_10h41.48.654,0back,,2025.1.1,60.00088801117306,2026-04-20 10h41.54.837856 +0200,
1,1,0,M,N,return,1.6091282999987016,None,None,0,,,,,,,,0,0,0,0,0,3,3,0,0,1,1,27,164.7502231000035,,,,,,,,,,,,,,164.73488370000268,164.7502231000035,164.7502231000035,165.25019109999994,165.75012799999968,165.73354390000168,None,0,,,,,,,,,,,,,,,7,001,2026-04-20_10h41.48.654,0back,,2025.1.1,60.00088801117306,2026-04-20 10h41.54.837856 +0200,
2,2,0,M,R,return,1.6091282999987016,None,None,0,,,,,,,,0,0,0,0,0,3,3,0,0,2,2,14,165.75012799999968,,,,,,,,,,,,,,165.73489210000116,165.75012799999968,165.75012799999968,166.25013880000188,166.75012609999976,166.73364759999822,None,0,,,,,,,,,,,,,,,7,001,2026-04-20_10h41.48.654,0back,,2025.1.1,60.00088801117306,2026-04-20 10h41.54.837856 +0200,
3,3,0,M,N,return,1.6091282999987016,None,None,0,,,,,,,,0,0,0,0,0,3,3,0,0,3,3,26,166.75012609999976,,,,,,,,,,,,,,166.7350516000006,166.75012609999976,166.75012609999976,167.2502389000001,167.75021779999952,167.73365550000017,None,0,,,,,,,,,,,,,,,7,001,2026-04-20_10h41.48.654,0back,,2025.1.1,60.00088801117306,2026-04-20 10h41.54.837856 +0200,
4,4,0,M,A,return,1.6091282999987016,None,None,0,,,,,,,,0,0,0,0,0,3,3,0,0,4,4,33,167.75021779999952,,,,,,,,,,,,,,167.73510360000364,167.75021779999952,167.75021779999952,168.25017859999934,168.75014720000036,168.73356169999897,None,0,,,,,,,,,,,,,,,7,001,2026-04-20_10h41.48.654,0back,,2025.1.1,60.00088801117306,2026-04-20 10h41.54.837856 +0200,
5,5,0,M,N,return,1.6091282999987016,None,None,0,,,,,,,,0,0,0,0,0,3,3,0,0,5,5,21,168.75014720000036,,,,,,,,,,,,,,168.7347493999987,168.75014720000036,168.75014720000036,169.2501138000007,169.7502356000041,169.73353299999872,None,0,,,,,,,,,,,,,,,7,001,2026-04-20_10h41.48.654,0back,,2025.1.1,60.00088801117306,2026-04-20 10h41.54.837856 +0200,
6,6,0,M,I,return,1.6091282999987016,None,space,1,0.2956066999977338,0.04800940000131959,,,,,,0,0,0,0,0,3,3,0,0,6,6,44,169.7502356000041,,,,,,,,,,,,,,169.7351978000006,169.7502356000041,169.7502356000041,170.25014720000036,170.75022600000375,170.73352159999922,space,1,0.2956066999977338,0.04800940000131959,,,,,,,,,,,,,7,001,2026-04-20_10h41.48.654,0back,,2025.1.1,60.00088801117306,2026-04-20 10h41.54.837856 +0200,
7,7,0,M,E,return,1.6091282999987016,None,None,0,,,,,,,,0,0,0,0,0,3,3,0,0,7,7,40,170.75022600000375,,,,,,,,,,,,,,170.73480560000462,170.75022600000375,170.75022600000375,171.25021189999825,171.75016029999824,171.73351520000142,None,0,,,,,,,,,,,,,,,7,001,2026-04-20_10h41.48.654,0back,,2025.1.1,60.00088801117306,2026-04-20 10h41.54.837856 +0200,
8,8,0,M,N,return,1.6091282999987016,None,None,0,,,,,,,,0,0,0,0,0,3,3,0,0,8,8,22,171.75016029999824,,,,,,,,,,,,,,171.73472510000283,171.75016029999824,171.75016029999824,172.25016519999917,172.75023389999842,172.73345749999862,None,0,,,,,,,,,,,,,,,7,001,2026-04-20_10h41.48.654,0back,,2025.1.1,60.00088801117306,2026-04-20 10h41.54.837856 +0200,
9,9,0,M,A,return,1.6091282999987016,None,None,0,,,,,,,,0,0,0,0,0,3,3,0,0,9,9,30,172.75023389999842,,,,,,,,,,,,,,172.73484309999913,172.75023389999842,172.75023389999842,173.25016809999943,173.75015220000205,173.73345130000234,None,0,,,,,,,,,,,,,,,7,001,2026-04-20_10h41.48.654,0back,,2025.1.1,60.00088801117306,2026-04-20 10h41.54.837856 +0200,
10,10,0,M,R,return,1.6091282999987016,None,None,0,,,,,,,,0,0,0,0,0,3,3,0,0,10,10,15,173.75015220000205,,,,,,,,,,,,,,173.73475229999895,173.75015220000205,173.75015220000205,174.25011860000086,174.750208700003,174.73350449999998,None,0,,,,,,,,,,,,,,,7,001,2026-04-20_10h41.48.654,0back,,2025.1.1,60.00088801117306,2026-04-20 10h41.54.837856 +0200,
11,11,0,M,R,return,1.6091282999987016,None,None,0,,,,,,,,0,0,0,0,0,3,3,0,0,11,11,11,174.750208700003,,,,,,,,,,,,,,174.73363170000084,174.750208700003,174.750208700003,175.2508091999989,175.75012630000128,175.73349489999964,None,0,,,,,,,,,,,,,,,7,001,2026-04-20_10h41.48.654,0back,,2025.1.1,60.00088801117306,2026-04-20 10h41.54.837856 +0200,
12,12,0,M,M,return,1.6091282999987016,None,space,1,0.4551796000014292,0.17633599999680882,,,,,,0,0,0,0,0,3,3,0,0,12,12,0,175.75012630000128,,,,,,,,,,,,,,175.7356512000042,175.75012630000128,175.75012630000128,176.25012950000382,176.7501590000029,176.7335746000026,space,1,0.4551796000014292,0.17633599999680882,,,,,,,,,,,,,7,001,2026-04-20_10h41.48.654,0back,,2025.1.1,60.00088801117306,2026-04-20 10h41.54.837856 +0200,
13,13,0,M,R,return,1.6091282999987016,None,None,0,,,,,,,,0,0,0,0,0,3,3,0,0,13,13,10,176.7501590000029,,,,,,,,,,,,,,176.73502860000008,176.7501590000029,176.7501590000029,177.2502117999975,177.75013110000145,177.73361920000025,None,0,,,,,,,,,,,,,,,7,001,2026-04-20_10h41.48.654,0back,,2025.1.1,60.00088801117306,2026-04-20 10h41.54.837856 +0200,
14,14,0,M,M,return,1.6091282999987016,None,space,1,0.43279530000290833,0.14270969999779481,,,,,,0,0,0,0,0,3,3,0,0,14,14,8,177.75013110000145,,,,,,,,,,,,,,177.73559840000235,177.75013110000145,177.75013110000145,178.25013549999858,178.75015810000332,178.7335091999994,space,1,0.43279530000290833,0.14270969999779481,,,,,,,,,,,,,7,001,2026-04-20_10h41.48.654,0back,,2025.1.1,60.00088801117306,2026-04-20 10h41.54.837856 +0200,
15,15,0,M,N,return,1.6091282999987016,None,None,0,,,,,,,,0,0,0,0,0,3,3,0,0,15,15,20,178.75015810000332,,,,,,,,,,,,,,178.73499070000253,178.75015810000332,178.75015810000332,179.25020909999876,179.75016940000205,179.73349740000413,None,0,,,,,,,,,,,,,,,7,001,2026-04-20_10h41.48.654,0back,,2025.1.1,60.00088801117306,2026-04-20 10h41.54.837856 +0200,
16,16,0,M,R,return,1.6091282999987016,None,None,0,,,,,,,,0,0,0,0,0,3,3,0,0,16,16,16,179.75016940000205,,,,,,,,,,,,,,179.73477049999929,179.75016940000205,179.75016940000205,180.25011770000128,180.7502508000034,180.73381569999765,None,0,,,,,,,,,,,,,,,7,001,2026-04-20_10h41.48.654,0back,,2025.1.1,60.00088801117306,2026-04-20 10h41.54.837856 +0200,
17,17,0,M,M,return,1.6091282999987016,None,space,1,0.3913511999999173,0.16802849999658065,,,,,,0,0,0,0,0,3,3,0,0,17,17,6,180.7502508000034,,,,,,,,,,,,,,180.73579859999882,180.7502508000034,180.7502508000034,181.25013919999765,181.75014329999976,181.73376080000162,space,1,0.3913511999999173,0.16802849999658065,,,,,,,,,,,,,7,001,2026-04-20_10h41.48.654,0back,,2025.1.1,60.00088801117306,2026-04-20 10h41.54.837856 +0200,
18,18,0,M,M,return,1.6091282999987016,None,space,1,0.3915449999985867,0.1436526000034064,,,,,,0,0,0,0,0,3,3,0,0,18,18,5,181.75014329999976,,,,,,,,,,,,,,181.7348295999982,181.75014329999976,181.75014329999976,182.25014060000103,182.75020609999774,182.73363390000304,space,1,0.3915449999985867,0.1436526000034064,,,,,,,,,,,,,7,001,2026-04-20_10h41.48.654,0back,,2025.1.1,60.00088801117306,2026-04-20 10h41.54.837856 +0200,
19,19,0,M,O,return,1.6091282999987016,None,None,0,,,,,,,,0,0,0,0,0,3,3,0,0,19,19,45,182.75020609999774,,,,,,,,,,,,,,182.73494590000337,182.75020609999774,182.75020609999774,183.25014999999985,183.7507762000023,183.73361000000295,None,0,,,,,,,,,,,,,,,7,001,2026-04-20_10h41.48.654,0back,,2025.1.1,60.00088801117306,2026-04-20 10h41.54.837856 +0200,
20,20,0,M,M,return,1.6091282999987016,None,space,1,0.3990300999939791,0.15253870000015013,,,,,,0,0,0,0,0,3,3,0,0,20,20,2,183.7507762000023,,,,,,,,,,,,,,183.73589319999883,183.7507762000023,183.7507762000023,184.2500538000022,184.75015800000256,184.73340930000268,space,1,0.3990300999939791,0.15253870000015013,,,,,,,,,,,,,7,001,2026-04-20_10h41.48.654,0back,,2025.1.1,60.00088801117306,2026-04-20 10h41.54.837856 +0200,
21,21,0,M,M,return,1.6091282999987016,None,space,1,0.3916880999968271,0.14388799999869661,,,,,,0,0,0,0,0,3,3,0,0,21,21,4,184.75015800000256,,,,,,,,,,,,,,184.7342084999982,184.75015800000256,184.75015800000256,185.25017420000222,185.75042190000386,185.73346260000108,space,1,0.3916880999968271,0.14388799999869661,,,,,,,,,,,,,7,001,2026-04-20_10h41.48.654,0back,,2025.1.1,60.00088801117306,2026-04-20 10h41.54.837856 +0200,
22,22,0,M,A,return,1.6091282999987016,None,None,0,,,,,,,,0,0,0,0,0,3,3,0,0,22,22,29,185.75042190000386,,,,,,,,,,,,,,185.7349417000005,185.75042190000386,185.75042190000386,186.25027489999775,186.75026090000028,186.73362620000262,None,0,,,,,,,,,,,,,,,7,001,2026-04-20_10h41.48.654,0back,,2025.1.1,60.00088801117306,2026-04-20 10h41.54.837856 +0200,
23,23,0,M,R,return,1.6091282999987016,None,None,0,,,,,,,,0,0,0,0,0,3,3,0,0,23,23,18,186.75026090000028,,,,,,,,,,,,,,186.73484710000048,186.75026090000028,186.75026090000028,187.25017669999943,187.75020410000434,187.73349520000193,None,0,,,,,,,,,,,,,,,7,001,2026-04-20_10h41.48.654,0back,,2025.1.1,60.00088801117306,2026-04-20 10h41.54.837856 +0200,
24,24,0,M,M,return,1.6091282999987016,None,space,1,0.4474128000001656,0.12828779999836115,,,,,,0,0,0,0,0,3,3,0,0,24,24,7,187.75020410000434,,,,,,,,,,,,,,187.73541839999962,187.75020410000434,187.75020410000434,188.25024410000333,188.75024929999927,188.73351600000024,space,1,0.4474128000001656,0.12828779999836115,,,,,,,,,,,,,7,001,2026-04-20_10h41.48.654,0back,,2025.1.1,60.00088801117306,2026-04-20 10h41.54.837856 +0200,
25,25,0,M,A,return,1.6091282999987016,None,None,0,,,,,,,,0,0,0,0,0,3,3,0,0,25,25,34,188.75024929999927,,,,,,,,,,,,,,188.73485990000336,188.75024929999927,188.75024929999927,189.25020709999808,189.7506080000021,189.73343190000014,None,0,,,,,,,,,,,,,,,7,001,2026-04-20_10h41.48.654,0back,,2025.1.1,60.00088801117306,2026-04-20 10h41.54.837856 +0200,
26,26,0,M,N,return,1.6091282999987016,None,None,0,,,,,,,,0,0,0,0,0,3,3,0,0,26,26,24,189.7506080000021,,,,,,,,,,,,,,189.73475889999827,189.7506080000021,189.7506080000021,190.2501712000012,190.75024439999834,190.73360310000135,None,0,,,,,,,,,,,,,,,7,001,2026-04-20_10h41.48.654,0back,,2025.1.1,60.00088801117306,2026-04-20 10h41.54.837856 +0200,
27,27,0,M,T,return,1.6091282999987016,None,None,0,,,,,,,,0,0,0,0,0,3,3,0,0,27,27,41,190.75024439999834,,,,,,,,,,,,,,190.73498420000396,190.75024439999834,190.75024439999834,191.25016850000247,191.75017130000197,191.73352570000134,None,0,,,,,,,,,,,,,,,7,001,2026-04-20_10h41.48.654,0back,,2025.1.1,60.00088801117306,2026-04-20 10h41.54.837856 +0200,
28,28,0,M,N,return,1.6091282999987016,None,None,0,,,,,,,,0,0,0,0,0,3,3,0,0,28,28,19,191.75017130000197,,,,,,,,,,,,,,191.73476469999878,191.75017130000197,191.75017130000197,192.25025019999885,192.75023330000113,192.73338280000462,None,0,,,,,,,,,,,,,,,7,001,2026-04-20_10h41.48.654,0back,,2025.1.1,60.00088801117306,2026-04-20 10h41.54.837856 +0200,
29,29,0,M,A,return,1.6091282999987016,None,None,0,,,,,,,,0,0,0,0,0,3,3,0,0,29,29,35,192.75023330000113,,,,,,,,,,,,,,192.73455829999875,192.75023330000113,192.75023330000113,193.2506754999995,193.7501415000006,193.73337729999912,None,0,,,,,,,,,,,,,,,7,001,2026-04-20_10h41.48.654,0back,,2025.1.1,60.00088801117306,2026-04-20 10h41.54.837856 +0200,
30,30,0,M,D,return,1.6091282999987016,None,None,0,,,,,,,,0,0,0,0,0,3,3,0,0,30,30,48,193.7501415000006,,,,,,,,,,,,,,193.73467450000317,193.7501415000006,193.7501415000006,194.25038760000461,194.750208700003,194.73342430000048,None,0,,,,,,,,,,,,,,,7,001,2026-04-20_10h41.48.654,0back,,2025.1.1,60.00088801117306,2026-04-20 10h41.54.837856 +0200,
31,31,0,M,N,return,1.6091282999987016,None,None,0,,,,,,,,0,0,0,0,0,3,3,0,0,31,31,28,194.750208700003,,,,,,,,,,,,,,194.73533339999994,194.750208700003,194.750208700003,195.2501706999974,195.75024690000282,195.7334800000026,None,0,,,,,,,,,,,,,,,7,001,2026-04-20_10h41.48.654,0back,,2025.1.1,60.00088801117306,2026-04-20 10h41.54.837856 +0200,
32,32,0,M,A,return,1.6091282999987016,None,None,0,,,,,,,,0,0,0,0,0,3,3,0,0,32,32,31,195.75024690000282,,,,,,,,,,,,,,195.73477899999853,195.75024690000282,195.75024690000282,196.25016699999833,196.75024120000307,196.73349980000057,None,0,,,,,,,,,,,,,,,7,001,2026-04-20_10h41.48.654,0back,,2025.1.1,60.00088801117306,2026-04-20 10h41.54.837856 +0200,
33,33,0,M,Q,return,1.6091282999987016,None,None,0,,,,,,,,0,0,0,0,0,3,3,0,0,33,33,47,196.75024120000307,,,,,,,,,,,,,,196.73493079999753,196.75024120000307,196.75024120000307,197.25025570000435,197.75021030000062,197.73352439999871,None,0,,,,,,,,,,,,,,,7,001,2026-04-20_10h41.48.654,0back,,2025.1.1,60.00088801117306,2026-04-20 10h41.54.837856 +0200,
34,34,0,M,M,return,1.6091282999987016,None,space,1,0.3756264000039664,0.1921775999944657,,,,,,0,0,0,0,0,3,3,0,0,34,34,1,197.75021030000062,,,,,,,,,,,,,,197.73584059999848,197.75021030000062,197.75021030000062,198.25019030000112,198.75014229999942,198.73345359999803,space,1,0.3756264000039664,0.1921775999944657,,,,,,,,,,,,,7,001,2026-04-20_10h41.48.654,0back,,2025.1.1,60.00088801117306,2026-04-20 10h41.54.837856 +0200,
35,35,0,M,A,return,1.6091282999987016,None,None,0,,,,,,,,0,0,0,0,0,3,3,0,0,35,35,37,198.75014229999942,,,,,,,,,,,,,,198.73479529999895,198.75014229999942,198.75014229999942,199.2502098000041,199.750211999999,199.73340420000022,None,0,,,,,,,,,,,,,,,7,001,2026-04-20_10h41.48.654,0back,,2025.1.1,60.00088801117306,2026-04-20 10h41.54.837856 +0200,
36,36,0,M,Y,return,1.6091282999987016,None,None,0,,,,,,,,0,0,0,0,0,3,3,0,0,36,36,42,199.750211999999,,,,,,,,,,,,,,199.73469710000063,199.750211999999,199.750211999999,200.25045279999904,200.7502334000019,200.73368530000153,None,0,,,,,,,,,,,,,,,7,001,2026-04-20_10h41.48.654,0back,,2025.1.1,60.00088801117306,2026-04-20 10h41.54.837856 +0200,
37,37,0,M,N,return,1.6091282999987016,None,None,0,,,,,,,,0,0,0,0,0,3,3,0,0,37,37,25,200.7502334000019,,,,,,,,,,,,,,200.73599909999757,200.7502334000019,200.7502334000019,201.25024459999986,201.7502050999974,201.73334440000326,None,0,,,,,,,,,,,,,,,7,001,2026-04-20_10h41.48.654,0back,,2025.1.1,60.00088801117306,2026-04-20 10h41.54.837856 +0200,
38,38,0,M,A,return,1.6091282999987016,None,None,0,,,,,,,,0,0,0,0,0,3,3,0,0,38,38,32,201.7502050999974,,,,,,,,,,,,,,201.73465430000215,201.7502050999974,201.7502050999974,202.25016750000214,202.75030780000088,202.7334727999987,None,0,,,,,,,,,,,,,,,7,001,2026-04-20_10h41.48.654,0back,,2025.1.1,60.00088801117306,2026-04-20 10h41.54.837856 +0200,
39,39,0,M,R,return,1.6091282999987016,None,None,0,,,,,,,,0,0,0,0,0,3,3,0,0,39,39,17,202.75030780000088,,,,,,,,,,,,,,202.73494740000024,202.75030780000088,202.75030780000088,203.25014660000306,203.75020410000434,203.73349400000006,None,0,,,,,,,,,,,,,,,7,001,2026-04-20_10h41.48.654,0back,,2025.1.1,60.00088801117306,2026-04-20 10h41.54.837856 +0200,
40,40,0,M,Z,return,1.6091282999987016,None,None,0,,,,,,,,0,0,0,0,0,3,3,0,0,40,40,39,203.75020410000434,,,,,,,,,,,,,,203.73502169999847,203.75020410000434,203.75020410000434,204.250194500004,204.75024290000147,204.73367210000288,None,0,,,,,,,,,,,,,,,7,001,2026-04-20_10h41.48.654,0back,,2025.1.1,60.00088801117306,2026-04-20 10h41.54.837856 +0200,
41,41,0,M,A,return,1.6091282999987016,None,None,0,,,,,,,,0,0,0,0,0,3,3,0,0,41,41,36,204.75024290000147,,,,,,,,,,,,,,204.73553260000335,204.75024290000147,204.75024290000147,205.2502661000035,205.75016170000163,205.7334420000043,None,0,,,,,,,,,,,,,,,7,001,2026-04-20_10h41.48.654,0back,,2025.1.1,60.00088801117306,2026-04-20 10h41.54.837856 +0200,
42,42,0,M,U,return,1.6091282999987016,None,None,0,,,,,,,,0,0,0,0,0,3,3,0,0,42,42,43,205.75016170000163,,,,,,,,,,,,,,205.73469620000105,205.75016170000163,205.75016170000163,206.2502134000024,206.75021030000062,206.7336112999983,None,0,,,,,,,,,,,,,,,7,001,2026-04-20_10h41.48.654,0back,,2025.1.1,60.00088801117306,2026-04-20 10h41.54.837856 +0200,
43,43,0,M,P,return,1.6091282999987016,None,None,0,,,,,,,,0,0,0,0,0,3,3,0,0,43,43,46,206.75021030000062,,,,,,,,,,,,,,206.73578350000025,206.75021030000062,206.75021030000062,207.25021250000282,207.75031930000114,207.73357820000092,None,0,,,,,,,,,,,,,,,7,001,2026-04-20_10h41.48.654,0back,,2025.1.1,60.00088801117306,2026-04-20 10h41.54.837856 +0200,
44,44,0,M,R,return,1.6091282999987016,None,None,0,,,,,,,,0,0,0,0,0,3,3,0,0,44,44,13,207.75031930000114,,,,,,,,,,,,,,207.73505889999797,207.75031930000114,207.75031930000114,208.25017949999892,208.7503091000035,208.73378870000306,None,0,,,,,,,,,,,,,,,7,001,2026-04-20_10h41.48.654,0back,,2025.1.1,60.00088801117306,2026-04-20 10h41.54.837856 +0200,
45,45,0,M,M,return,1.6091282999987016,None,space,1,0.5195755000022473,0.15183000000251923,,,,,,0,0,0,0,0,3,3,0,0,45,45,3,208.7503091000035,,,,,,,,,,,,,,208.73661990000255,208.7503091000035,208.7503091000035,209.25015800000256,209.7503582999998,209.73352760000125,space,1,0.5195755000022473,0.15183000000251923,,,,,,,,,,,,,7,001,2026-04-20_10h41.48.654,0back,,2025.1.1,60.00088801117306,2026-04-20 10h41.54.837856 +0200,
46,46,0,M,R,return,1.6091282999987016,None,None,0,,,,,,,,0,0,0,0,0,3,3,0,0,46,46,9,209.7503582999998,,,,,,,,,,,,,,209.73481329999777,209.7503582999998,209.7503582999998,210.25026649999927,210.75024180000037,210.73354929999914,None,0,,,,,,,,,,,,,,,7,001,2026-04-20_10h41.48.654,0back,,2025.1.1,60.00088801117306,2026-04-20 10h41.54.837856 +0200,
47,47,0,M,N,return,1.6091282999987016,None,None,0,,,,,,,,0,0,0,0,0,3,3,0,0,47,47,23,210.75024180000037,,,,,,,,,,,,,,210.73501470000338,210.75024180000037,210.75024180000037,211.25017939999816,211.7501970000012,211.73353990000032,None,0,,,,,,,,,,,,,,,7,001,2026-04-20_10h41.48.654,0back,,2025.1.1,60.00088801117306,2026-04-20 10h41.54.837856 +0200,
48,48,0,M,C,return,1.6091282999987016,None,None,0,,,,,,,,0,0,0,0,0,3,3,0,0,48,48,49,211.7501970000012,,,,,,,,,,,,,,211.73490799999854,211.7501970000012,211.7501970000012,212.25023990000045,212.7502622000029,212.73356810000405,None,0,,,,,,,,,,,,,,,7,001,2026-04-20_10h41.48.654,0back,,2025.1.1,60.00088801117306,2026-04-20 10h41.54.837856 +0200,
49,49,0,M,R,return,1.6091282999987016,None,None,0,,,,,,,,0,0,0,0,0,3,3,0,0,49,49,12,212.7502622000029,,,,,,,,,,,,,,212.7350535000005,212.7502622000029,212.7502622000029,213.25061060000007,213.78238820000115,213.73350180000125,None,0,,,,,,,,,,,,,,,7,001,2026-04-20_10h41.48.654,0back,,2025.1.1,60.00088801117306,2026-04-20 10h41.54.837856 +0200,
3,3,0,M,,return,1.6091282999987016,None,,,,,,,,,,0,0,0,0,0,3,3,0,,,,,,,,,,,,,,,,,,,,,,,,,,,,,,,,,,,,,,,,,7,001,2026-04-20_10h41.48.654,0back,,2025.1.1,60.00088801117306,2026-04-20 10h41.54.837856 +0200,
0,0,0,,,,,,,,,,3.0,7.713346500000625,1,[8.561695299998973],[8.561701899998297],0,0,0,0,,,,,,,,,,,,,,,,,,,,,,,,,,,,,,,,,213.7471841000006,213.78238820000115,213.78238820000115,213.78238820000115,213.78238820000115,213.78238820000115,222.34509470000194,3.0,7.713346500000625,1,[8.561695299998973],[8.561701899998297],7,001,2026-04-20_10h41.48.654,0back,,2025.1.1,60.00088801117306,2026-04-20 10h41.54.837856 +0200,
0,0,0,R,Q,return,1.4278836000012234,None,None,0,,,,,,,,1,0,1,0,0,0,0,1,0,0,0,47,223.80018189999828,,,,,222.35147940000024,222.3540026999981,222.3540026999981,222.3540026999981,222.3540026999981,223.78374250000343,return,1.4278836000012234,None,223.7907070000001,223.80018189999828,223.80018189999828,224.3003486000016,224.80025459999888,224.7836157999991,None,0,,,,,,,,,,,,,,,7,001,2026-04-20_10h41.48.654,0back,,2025.1.1,60.00088801117306,2026-04-20 10h41.54.837856 +0200,
1,1,0,R,A,return,1.4278836000012234,None,None,0,,,,,,,,1,0,1,0,0,0,0,1,0,1,1,33,224.80025459999888,,,,,,,,,,,,,,224.78496180000366,224.80025459999888,224.80025459999888,225.3002936999983,225.80020720000175,225.78356090000307,None,0,,,,,,,,,,,,,,,7,001,2026-04-20_10h41.48.654,0back,,2025.1.1,60.00088801117306,2026-04-20 10h41.54.837856 +0200,
2,2,0,R,A,return,1.4278836000012234,None,None,0,,,,,,,,1,0,1,0,0,0,0,1,0,2,2,38,225.80020720000175,,,,,,,,,,,,,,225.78370159999758,225.80020720000175,225.80020720000175,226.30021380000107,226.80031730000337,226.78359769999952,None,0,,,,,,,,,,,,,,,7,001,2026-04-20_10h41.48.654,0back,,2025.1.1,60.00088801117306,2026-04-20 10h41.54.837856 +0200,
3,3,0,R,M,return,1.4278836000012234,None,None,0,,,,,,,,1,0,1,0,0,0,0,1,0,3,3,7,226.80031730000337,,,,,,,,,,,,,,226.7848490000033,226.80031730000337,226.80031730000337,227.30025050000404,227.80024419999972,227.78372720000334,None,0,,,,,,,,,,,,,,,7,001,2026-04-20_10h41.48.654,0back,,2025.1.1,60.00088801117306,2026-04-20 10h41.54.837856 +0200,
4,4,0,R,M,return,1.4278836000012234,None,None,0,,,,,,,,1,0,1,0,0,0,0,1,0,4,4,1,227.80024419999972,,,,,,,,,,,,,,227.78386760000285,227.80024419999972,227.80024419999972,228.30019560000073,228.8002895000027,228.7838025000019,None,0,,,,,,,,,,,,,,,7,001,2026-04-20_10h41.48.654,0back,,2025.1.1,60.00088801117306,2026-04-20 10h41.54.837856 +0200,
5,5,0,R,N,return,1.4278836000012234,None,None,0,,,,,,,,1,0,1,0,0,0,0,1,0,5,5,28,228.8002895000027,,,,,,,,,,,,,,228.78627779999806,228.8002895000027,228.8002895000027,229.30028300000413,229.80018120000022,229.78372130000207,None,0,,,,,,,,,,,,,,,7,001,2026-04-20_10h41.48.654,0back,,2025.1.1,60.00088801117306,2026-04-20 10h41.54.837856 +0200,
6,6,0,R,N,return,1.4278836000012234,None,space,1,0.6389621000053012,0.14303739999741083,,,,,,1,0,1,0,0,0,0,1,0,6,6,19,229.80018120000022,,,,,,,,,,,,,,229.78390139999829,229.80018120000022,229.80018120000022,230.3002534000043,230.8002611999982,230.7838580000025,space,1,0.6389621000053012,0.14303739999741083,,,,,,,,,,,,,7,001,2026-04-20_10h41.48.654,0back,,2025.1.1,60.00088801117306,2026-04-20 10h41.54.837856 +0200,
7,7,0,R,Y,return,1.4278836000012234,None,None,0,,,,,,,,1,0,1,0,0,0,0,1,0,7,7,42,230.8002611999982,,,,,,,,,,,,,,230.78550330000144,230.8002611999982,230.8002611999982,231.30021770000167,231.80029210000066,231.7836374000035,None,0,,,,,,,,,,,,,,,7,001,2026-04-20_10h41.48.654,0back,,2025.1.1,60.00088801117306,2026-04-20 10h41.54.837856 +0200,
8,8,0,R,M,return,1.4278836000012234,None,None,0,,,,,,,,1,0,1,0,0,0,0,1,0,8,8,6,231.80029210000066,,,,,,,,,,,,,,231.78504000000248,231.80029210000066,231.80029210000066,232.30016410000098,232.80029450000438,232.78349690000323,None,0,,,,,,,,,,,,,,,7,001,2026-04-20_10h41.48.654,0back,,2025.1.1,60.00088801117306,2026-04-20 10h41.54.837856 +0200,
9,9,0,R,D,return,1.4278836000012234,None,None,0,,,,,,,,1,0,1,0,0,0,0,1,0,9,9,48,232.80029450000438,,,,,,,,,,,,,,232.78483969999797,232.80029450000438,232.80029450000438,233.3002689999994,233.80030400000396,233.78368330000376,None,0,,,,,,,,,,,,,,,7,001,2026-04-20_10h41.48.654,0back,,2025.1.1,60.00088801117306,2026-04-20 10h41.54.837856 +0200,
10,10,0,R,R,return,1.4278836000012234,None,None,0,,,,,,,,1,0,1,0,0,0,0,1,0,10,10,9,233.80030400000396,,,,,,,,,,,,,,233.78562539999984,233.80030400000396,233.80030400000396,234.30020640000293,234.80020389999845,234.78352940000332,None,0,,,,,,,,,,,,,,,7,001,2026-04-20_10h41.48.654,0back,,2025.1.1,60.00088801117306,2026-04-20 10h41.54.837856 +0200,
11,11,0,R,M,return,1.4278836000012234,None,None,0,,,,,,,,1,0,1,0,0,0,0,1,0,11,11,0,234.80020389999845,,,,,,,,,,,,,,234.78486440000415,234.80020389999845,234.80020389999845,235.3001910000021,235.80017059999955,235.78362840000045,None,0,,,,,,,,,,,,,,,7,001,2026-04-20_10h41.48.654,0back,,2025.1.1,60.00088801117306,2026-04-20 10h41.54.837856 +0200,
12,12,0,R,T,return,1.4278836000012234,None,None,0,,,,,,,,1,0,1,0,0,0,0,1,0,12,12,41,235.80017059999955,,,,,,,,,,,,,,235.78489809999883,235.80017059999955,235.80017059999955,236.30017729999963,236.80024550000235,236.7834490000023,None,0,,,,,,,,,,,,,,,7,001,2026-04-20_10h41.48.654,0back,,2025.1.1,60.00088801117306,2026-04-20 10h41.54.837856 +0200,
13,13,0,R,O,return,1.4278836000012234,None,None,0,,,,,,,,1,0,1,0,0,0,0,1,0,13,13,45,236.80024550000235,,,,,,,,,,,,,,236.78468679999787,236.80024550000235,236.80024550000235,237.3002536999993,237.80173389999982,237.7838047000041,None,0,,,,,,,,,,,,,,,7,001,2026-04-20_10h41.48.654,0back,,2025.1.1,60.00088801117306,2026-04-20 10h41.54.837856 +0200,
14,14,0,R,C,return,1.4278836000012234,None,None,0,,,,,,,,1,0,1,0,0,0,0,1,0,14,14,49,237.80173389999982,,,,,,,,,,,,,,237.78561600000103,237.80173389999982,237.80173389999982,238.31710900000326,,238.80029169999762,None,0,,,,,,,,,,,,,,,7,001,2026-04-20_10h41.48.654,0back,,2025.1.1,60.00088801117306,2026-04-20 10h41.54.837856 +0200,
15,15,0,R,A,return,1.4278836000012234,None,None,0,,,,,,,,1,0,1,0,0,0,0,1,0,15,15,35,238.81690589999926,,,,,,,,,,,,,,238.80148259999987,238.81690589999926,238.81690589999926,239.3168411000006,,239.80030249999982,None,0,,,,,,,,,,,,,,,7,001,2026-04-20_10h41.48.654,0back,,2025.1.1,60.00088801117306,2026-04-20 10h41.54.837856 +0200,
16,16,0,R,M,return,1.4278836000012234,None,space,1,0.6938508000021102,0.159969699998328,,,,,,1,0,1,0,0,0,0,1,0,16,16,4,239.8168891000023,,,,,,,,,,,,,,239.80167600000277,239.8168891000023,239.8168891000023,240.31695760000002,,240.80027770000015,space,1,0.6938508000021102,0.159969699998328,,,,,,,,,,,,,7,001,2026-04-20_10h41.48.654,0back,,2025.1.1,60.00088801117306,2026-04-20 10h41.54.837856 +0200,
17,17,0,R,M,return,1.4278836000012234,None,None,0,,,,,,,,1,0,1,0,0,0,0,1,0,17,17,5,240.81683160000102,,,,,,,,,,,,,,240.80042700000195,240.81683160000102,240.81683160000102,241.31771429999935,,241.80025849999947,None,0,,,,,,,,,,,,,,,7,001,2026-04-20_10h41.48.654,0back,,2025.1.1,60.00088801117306,2026-04-20 10h41.54.837856 +0200,
18,18,0,R,R,return,1.4278836000012234,None,None,0,,,,,,,,1,0,1,0,0,0,0,1,0,18,18,16,241.81678760000068,,,,,,,,,,,,,,241.8022157000014,241.81678760000068,241.81678760000068,242.3169388000024,,242.80020560000412,None,0,,,,,,,,,,,,,,,7,001,2026-04-20_10h41.48.654,0back,,2025.1.1,60.00088801117306,2026-04-20 10h41.54.837856 +0200,
19,19,0,R,R,return,1.4278836000012234,None,space,1,0.4608745999939856,0.1443799000044237,,,,,,1,0,1,0,0,0,0,1,0,19,19,12,242.81682960000035,,,,,,,,,,,,,,242.8009893999988,242.81682960000035,242.81682960000035,243.31685049999942,,243.80024830000184,space,1,0.4608745999939856,0.1443799000044237,,,,,,,,,,,,,7,001,2026-04-20_10h41.48.654,0back,,2025.1.1,60.00088801117306,2026-04-20 10h41.54.837856 +0200,
20,20,0,R,Z,return,1.4278836000012234,None,None,0,,,,,,,,1,0,1,0,0,0,0,1,0,20,20,39,243.816960199998,,,,,,,,,,,,,,243.80161940000107,243.816960199998,243.816960199998,244.31680680000136,,244.8003064000004,None,0,,,,,,,,,,,,,,,7,001,2026-04-20_10h41.48.654,0back,,2025.1.1,60.00088801117306,2026-04-20 10h41.54.837856 +0200,
21,21,0,R,N,return,1.4278836000012234,None,None,0,,,,,,,,1,0,1,0,0,0,0,1,0,21,21,20,244.81684089999908,,,,,,,,,,,,,,244.8017153000037,244.81684089999908,244.81684089999908,245.3168627999985,,245.8005340000018,None,0,,,,,,,,,,,,,,,7,001,2026-04-20_10h41.48.654,0back,,2025.1.1,60.00088801117306,2026-04-20 10h41.54.837856 +0200,
22,22,0,R,R,return,1.4278836000012234,None,space,1,0.43820419999974547,0.11902639999607345,,,,,,1,0,1,0,0,0,0,1,0,22,22,18,245.81677080000372,,,,,,,,,,,,,,245.8027426999979,245.81677080000372,245.81677080000372,246.31696109999757,,246.80029939999804,space,1,0.43820419999974547,0.11902639999607345,,,,,,,,,,,,,7,001,2026-04-20_10h41.48.654,0back,,2025.1.1,60.00088801117306,2026-04-20 10h41.54.837856 +0200,
23,23,0,R,R,return,1.4278836000012234,None,space,1,0.49354119999770774,0.1281987000038498,,,,,,1,0,1,0,0,0,0,1,0,23,23,10,246.81684230000246,,,,,,,,,,,,,,246.8011697000038,246.81684230000246,246.81684230000246,247.31683399999747,,247.8002506999983,space,1,0.49354119999770774,0.1281987000038498,,,,,,,,,,,,,7,001,2026-04-20_10h41.48.654,0back,,2025.1.1,60.00088801117306,2026-04-20 10h41.54.837856 +0200,
24,24,0,R,A,return,1.4278836000012234,None,None,0,,,,,,,,1,0,1,0,0,0,0,1,0,24,24,34,247.81683789999806,,,,,,,,,,,,,,247.80214610000257,247.81683789999806,247.81683789999806,248.31685370000196,,248.8002606000009,None,0,,,,,,,,,,,,,,,7,001,2026-04-20_10h41.48.654,0back,,2025.1.1,60.00088801117306,2026-04-20 10h41.54.837856 +0200,
25,25,0,R,N,return,1.4278836000012234,None,None,0,,,,,,,,1,0,1,0,0,0,0,1,0,25,25,26,248.8169001999995,,,,,,,,,,,,,,248.80154150000453,248.8169001999995,248.8169001999995,249.3169837000023,,249.80034159999923,None,0,,,,,,,,,,,,,,,7,001,2026-04-20_10h41.48.654,0back,,2025.1.1,60.00088801117306,2026-04-20 10h41.54.837856 +0200,
26,26,0,R,N,return,1.4278836000012234,None,None,0,,,,,,,,1,0,1,0,0,0,0,1,0,26,26,27,249.81689860000188,,,,,,,,,,,,,,249.80047609999747,249.81689860000188,249.81689860000188,250.31687170000077,,250.80031849999796,None,0,,,,,,,,,,,,,,,7,001,2026-04-20_10h41.48.654,0back,,2025.1.1,60.00088801117306,2026-04-20 10h41.54.837856 +0200,
27,27,0,R,M,return,1.4278836000012234,None,None,0,,,,,,,,1,0,1,0,0,0,0,1,0,27,27,3,250.8168966000012,,,,,,,,,,,,,,250.8016088000004,250.8168966000012,250.8168966000012,251.31680400000187,,251.80027580000024,None,0,,,,,,,,,,,,,,,7,001,2026-04-20_10h41.48.654,0back,,2025.1.1,60.00088801117306,2026-04-20 10h41.54.837856 +0200,
28,28,0,R,A,return,1.4278836000012234,None,None,0,,,,,,,,1,0,1,0,0,0,0,1,0,28,28,36,251.81693729999824,,,,,,,,,,,,,,251.80154870000115,251.81693729999824,251.81693729999824,252.31692150000163,,252.8002467999977,None,0,,,,,,,,,,,,,,,7,001,2026-04-20_10h41.48.654,0back,,2025.1.1,60.00088801117306,2026-04-20 10h41.54.837856 +0200,
29,29,0,R,R,return,1.4278836000012234,None,space,1,0.3977761999994982,0.15222999999969034,,,,,,1,0,1,0,0,0,0,1,0,29,29,15,252.81679129999975,,,,,,,,,,,,,,252.80225420000352,252.81679129999975,252.81679129999975,253.31703030000062,,253.80036290000135,space,1,0.3977761999994982,0.15222999999969034,,,,,,,,,,,,,7,001,2026-04-20_10h41.48.654,0back,,2025.1.1,60.00088801117306,2026-04-20 10h41.54.837856 +0200,
30,30,0,R,N,return,1.4278836000012234,None,None,0,,,,,,,,1,0,1,0,0,0,0,1,0,30,30,22,253.81686360000458,,,,,,,,,,,,,,253.80193329999747,253.81686360000458,253.81686360000458,254.31688500000018,,254.80027430000337,None,0,,,,,,,,,,,,,,,7,001,2026-04-20_10h41.48.654,0back,,2025.1.1,60.00088801117306,2026-04-20 10h41.54.837856 +0200,
31,31,0,R,N,return,1.4278836000012234,None,None,0,,,,,,,,1,0,1,0,0,0,0,1,0,31,31,21,254.81705579999834,,,,,,,,,,,,,,254.80042690000118,254.81705579999834,254.81705579999834,255.31691280000086,,255.8003697000022,None,0,,,,,,,,,,,,,,,7,001,2026-04-20_10h41.48.654,0back,,2025.1.1,60.00088801117306,2026-04-20 10h41.54.837856 +0200,
32,32,0,R,N,return,1.4278836000012234,None,None,0,,,,,,,,1,0,1,0,0,0,0,1,0,32,32,23,255.8172035000025,,,,,,,,,,,,,,255.80050450000272,255.8172035000025,255.8172035000025,256.31691120000323,,256.80036100000143,None,0,,,,,,,,,,,,,,,7,001,2026-04-20_10h41.48.654,0back,,2025.1.1,60.00088801117306,2026-04-20 10h41.54.837856 +0200,
33,33,0,R,R,return,1.4278836000012234,None,space,1,0.41353869999875315,0.13559340000210796,,,,,,1,0,1,0,0,0,0,1,0,33,33,17,256.8168880000012,,,,,,,,,,,,,,256.80244259999745,256.8168880000012,256.8168880000012,257.31696860000375,,257.80031959999906,space,1,0.41353869999875315,0.13559340000210796,,,,,,,,,,,,,7,001,2026-04-20_10h41.48.654,0back,,2025.1.1,60.00088801117306,2026-04-20 10h41.54.837856 +0200,
34,34,0,R,P,return,1.4278836000012234,None,None,0,,,,,,,,1,0,1,0,0,0,0,1,0,34,34,46,257.8169354999991,,,,,,,,,,,,,,257.80160340000293,257.8169354999991,257.8169354999991,258.3169565999997,,258.8003896000009,None,0,,,,,,,,,,,,,,,7,001,2026-04-20_10h41.48.654,0back,,2025.1.1,60.00088801117306,2026-04-20 10h41.54.837856 +0200,
35,35,0,R,U,return,1.4278836000012234,None,None,0,,,,,,,,1,0,1,0,0,0,0,1,0,35,35,43,258.8168962999989,,,,,,,,,,,,,,258.80216030000156,258.8168962999989,258.8168962999989,259.31688089999807,,259.8002944000036,None,0,,,,,,,,,,,,,,,7,001,2026-04-20_10h41.48.654,0back,,2025.1.1,60.00088801117306,2026-04-20 10h41.54.837856 +0200,
36,36,0,R,R,return,1.4278836000012234,None,space,1,0.421934500001953,0.15937299999495735,,,,,,1,0,1,0,0,0,0,1,0,36,36,11,259.81690669999807,,,,,,,,,,,,,,259.8022578000018,259.81690669999807,259.81690669999807,260.3169931000011,,260.8002770000021,space,1,0.421934500001953,0.15937299999495735,,,,,,,,,,,,,7,001,2026-04-20_10h41.48.654,0back,,2025.1.1,60.00088801117306,2026-04-20 10h41.54.837856 +0200,
37,37,0,R,M,return,1.4278836000012234,None,None,0,,,,,,,,1,0,1,0,0,0,0,1,0,37,37,2,260.81698060000053,,,,,,,,,,,,,,260.80164750000404,260.81698060000053,260.81698060000053,261.3169010999991,,261.8003987999982,None,0,,,,,,,,,,,,,,,7,001,2026-04-20_10h41.48.654,0back,,2025.1.1,60.00088801117306,2026-04-20 10h41.54.837856 +0200,
38,38,0,R,A,return,1.4278836000012234,None,None,0,,,,,,,,1,0,1,0,0,0,0,1,0,38,38,32,261.81698419999884,,,,,,,,,,,,,,261.8017583000037,261.81698419999884,261.81698419999884,262.3168863000028,,262.8004962999985,None,0,,,,,,,,,,,,,,,7,001,2026-04-20_10h41.48.654,0back,,2025.1.1,60.00088801117306,2026-04-20 10h41.54.837856 +0200,
39,39,0,R,N,return,1.4278836000012234,None,None,0,,,,,,,,1,0,1,0,0,0,0,1,0,39,39,24,262.8169208000036,,,,,,,,,,,,,,262.8024691000028,262.8169208000036,262.8169208000036,263.31685590000416,,263.80039869999746,None,0,,,,,,,,,,,,,,,7,001,2026-04-20_10h41.48.654,0back,,2025.1.1,60.00088801117306,2026-04-20 10h41.54.837856 +0200,
40,40,0,R,M,return,1.4278836000012234,None,None,0,,,,,,,,1,0,1,0,0,0,0,1,0,40,40,8,263.8169696000041,,,,,,,,,,,,,,263.80170689999795,263.8169696000041,263.8169696000041,264.3169861999995,,264.8003886000006,None,0,,,,,,,,,,,,,,,7,001,2026-04-20_10h41.48.654,0back,,2025.1.1,60.00088801117306,2026-04-20 10h41.54.837856 +0200,
41,41,0,R,A,return,1.4278836000012234,None,None,0,,,,,,,,1,0,1,0,0,0,0,1,0,41,41,37,264.8170452999984,,,,,,,,,,,,,,264.8017142000026,264.8170452999984,264.8170452999984,265.31695729999774,,265.80045200000313,None,0,,,,,,,,,,,,,,,7,001,2026-04-20_10h41.48.654,0back,,2025.1.1,60.00088801117306,2026-04-20 10h41.54.837856 +0200,
42,42,0,R,I,return,1.4278836000012234,None,None,0,,,,,,,,1,0,1,0,0,0,0,1,0,42,42,44,265.8169668000046,,,,,,,,,,,,,,265.8018577000039,265.8169668000046,265.8169668000046,266.3168551999988,,266.8004537000015,None,0,,,,,,,,,,,,,,,7,001,2026-04-20_10h41.48.654,0back,,2025.1.1,60.00088801117306,2026-04-20 10h41.54.837856 +0200,
43,43,0,R,E,return,1.4278836000012234,None,None,0,,,,,,,,1,0,1,0,0,0,0,1,0,43,43,40,266.8169646000024,,,,,,,,,,,,,,266.80191229999764,266.8169646000024,266.8169646000024,267.3168622000012,,267.80047529999865,None,0,,,,,,,,,,,,,,,7,001,2026-04-20_10h41.48.654,0back,,2025.1.1,60.00088801117306,2026-04-20 10h41.54.837856 +0200,
44,44,0,R,R,return,1.4278836000012234,None,space,1,0.4108686999970814,0.144058000005316,,,,,,1,0,1,0,0,0,0,1,0,44,44,13,267.8188369999989,,,,,,,,,,,,,,267.802812300004,267.8188369999989,267.8188369999989,268.3333442000003,,268.8004740000033,space,1,0.4108686999970814,0.144058000005316,,,,,,,,,,,,,7,001,2026-04-20_10h41.48.654,0back,,2025.1.1,60.00088801117306,2026-04-20 10h41.54.837856 +0200,
45,45,0,R,N,return,1.4278836000012234,None,None,0,,,,,,,,1,0,1,0,0,0,0,1,0,45,45,25,268.81690810000146,,,,,,,,,,,,,,268.801796300002,268.81690810000146,268.81690810000146,269.31888790000085,,269.80031540000346,None,0,,,,,,,,,,,,,,,7,001,2026-04-20_10h41.48.654,0back,,2025.1.1,60.00088801117306,2026-04-20 10h41.54.837856 +0200,
46,46,0,R,R,return,1.4278836000012234,None,space,1,0.4047878999990644,0.13569250000000466,,,,,,1,0,1,0,0,0,0,1,0,46,46,14,269.8168705999997,,,,,,,,,,,,,,269.80235659999744,269.8168705999997,269.8168705999997,270.31774089999817,,270.80059679999977,space,1,0.4047878999990644,0.13569250000000466,,,,,,,,,,,,,7,001,2026-04-20_10h41.48.654,0back,,2025.1.1,60.00088801117306,2026-04-20 10h41.54.837856 +0200,
47,47,0,R,A,return,1.4278836000012234,None,None,0,,,,,,,,1,0,1,0,0,0,0,1,0,47,47,31,270.816954599999,,,,,,,,,,,,,,270.80193970000255,270.816954599999,270.816954599999,271.31701020000037,,271.80048779999925,None,0,,,,,,,,,,,,,,,7,001,2026-04-20_10h41.48.654,0back,,2025.1.1,60.00088801117306,2026-04-20 10h41.54.837856 +0200,
48,48,0,R,A,return,1.4278836000012234,None,None,0,,,,,,,,1,0,1,0,0,0,0,1,0,48,48,29,271.8169538000002,,,,,,,,,,,,,,271.800639400004,271.8169538000002,271.8169538000002,272.3169274000029,,272.80030219999753,None,0,,,,,,,,,,,,,,,7,001,2026-04-20_10h41.48.654,0back,,2025.1.1,60.00088801117306,2026-04-20 10h41.54.837856 +0200,
49,49,0,R,A,return,1.4278836000012234,None,None,0,,,,,,,,1,0,1,0,0,0,0,1,0,49,49,30,272.81696969999757,,,,,,,,,,,,,,272.80051020000246,272.81696969999757,272.81696969999757,273.3168485999995,,273.80042200000025,None,0,,,,,,,,,,,,,,,7,001,2026-04-20_10h41.48.654,0back,,2025.1.1,60.00088801117306,2026-04-20 10h41.54.837856 +0200,
0,0,0,R,,return,1.4278836000012234,None,,,,,,,,,,1,0,1,0,0,0,0,1,,,,,,,,,,,,,,,,,,,,,,,,,,,,,,,,,,,,,,,,,7,001,2026-04-20_10h41.48.654,0back,,2025.1.1,60.00088801117306,2026-04-20 10h41.54.837856 +0200,
0,0,0,M,C,return,2.8210733000014443,None,None,0,,,,,,,,1,0,1,0,0,1,1,0,0,0,0,49,276.6669602000038,,,,,273.8066800000015,273.8169444000014,273.8169444000014,273.8169444000014,273.8169444000014,276.6508188000007,return,2.8210733000014443,None,276.65722259999893,276.6669602000038,276.6669602000038,277.1669890999983,277.6669244000004,277.6505821000028,None,0,,,,,,,,,,,,,,,7,001,2026-04-20_10h41.48.654,0back,,2025.1.1,60.00088801117306,2026-04-20 10h41.54.837856 +0200,
1,1,0,M,N,return,2.8210733000014443,None,None,0,,,,,,,,1,0,1,0,0,1,1,0,0,1,1,24,277.6669244000004,,,,,,,,,,,,,,277.6518696999992,277.6669244000004,277.6669244000004,278.1668823,278.6669471999994,278.6505309999993,None,0,,,,,,,,,,,,,,,7,001,2026-04-20_10h41.48.654,0back,,2025.1.1,60.00088801117306,2026-04-20 10h41.54.837856 +0200,
2,2,0,M,N,return,2.8210733000014443,None,None,0,,,,,,,,1,0,1,0,0,1,1,0,0,2,2,26,278.6669471999994,,,,,,,,,,,,,,278.65065999999933,278.6669471999994,278.6669471999994,279.1668528000009,279.66683970000304,279.65056809999805,None,0,,,,,,,,,,,,,,,7,001,2026-04-20_10h41.48.654,0back,,2025.1.1,60.00088801117306,2026-04-20 10h41.54.837856 +0200,
3,3,0,M,M,return,2.8210733000014443,None,space,1,0.3627466000034474,0.15178119999472983,,,,,,1,0,1,0,0,1,1,0,0,3,3,6,279.66683970000304,,,,,,,,,,,,,,279.6526584000021,279.66683970000304,279.66683970000304,280.1668772999983,280.66688570000406,280.6506616999977,space,1,0.3627466000034474,0.15178119999472983,,,,,,,,,,,,,7,001,2026-04-20_10h41.48.654,0back,,2025.1.1,60.00088801117306,2026-04-20 10h41.54.837856 +0200,
4,4,0,M,R,return,2.8210733000014443,None,None,0,,,,,,,,1,0,1,0,0,1,1,0,0,4,4,10,280.66688570000406,,,,,,,,,,,,,,280.6520454999991,280.66688570000406,280.66688570000406,281.166928300001,281.6668099000017,281.65047459999914,None,0,,,,,,,,,,,,,,,7,001,2026-04-20_10h41.48.654,0back,,2025.1.1,60.00088801117306,2026-04-20 10h41.54.837856 +0200,
5,5,0,M,N,return,2.8210733000014443,None,None,0,,,,,,,,1,0,1,0,0,1,1,0,0,5,5,25,281.6668099000017,,,,,,,,,,,,,,281.6518651000006,281.6668099000017,281.6668099000017,282.1668959000017,282.66721730000427,282.6506066000002,None,0,,,,,,,,,,,,,,,7,001,2026-04-20_10h41.48.654,0back,,2025.1.1,60.00088801117306,2026-04-20 10h41.54.837856 +0200,
6,6,0,M,M,return,2.8210733000014443,None,space,1,0.40263229999982286,0.14383580000139773,,,,,,1,0,1,0,0,1,1,0,0,6,6,2,282.66721730000427,,,,,,,,,,,,,,282.6524991999977,282.66721730000427,282.66721730000427,283.1669507999977,283.6669346999988,283.65049120000185,space,1,0.40263229999982286,0.14383580000139773,,,,,,,,,,,,,7,001,2026-04-20_10h41.48.654,0back,,2025.1.1,60.00088801117306,2026-04-20 10h41.54.837856 +0200,
7,7,0,M,A,return,2.8210733000014443,None,None,0,,,,,,,,1,0,1,0,0,1,1,0,0,7,7,37,283.6669346999988,,,,,,,,,,,,,,283.6518236999982,283.6669346999988,283.6669346999988,284.16697980000026,284.6670088000028,284.65064770000026,None,0,,,,,,,,,,,,,,,7,001,2026-04-20_10h41.48.654,0back,,2025.1.1,60.00088801117306,2026-04-20 10h41.54.837856 +0200,
8,8,0,M,A,return,2.8210733000014443,None,None,0,,,,,,,,1,0,1,0,0,1,1,0,0,8,8,32,284.6670088000028,,,,,,,,,,,,,,284.6508912999998,284.6670088000028,284.6670088000028,285.1669341000015,285.6669297999979,285.6506051000033,None,0,,,,,,,,,,,,,,,7,001,2026-04-20_10h41.48.654,0back,,2025.1.1,60.00088801117306,2026-04-20 10h41.54.837856 +0200,
9,9,0,M,M,return,2.8210733000014443,None,space,1,0.38674619999801507,0.15183629999955883,,,,,,1,0,1,0,0,1,1,0,0,9,9,8,285.6669297999979,,,,,,,,,,,,,,285.6526576000033,285.6669297999979,285.6669297999979,286.16684890000033,286.66682630000287,286.6506792,space,1,0.38674619999801507,0.15183629999955883,,,,,,,,,,,,,7,001,2026-04-20_10h41.48.654,0back,,2025.1.1,60.00088801117306,2026-04-20 10h41.54.837856 +0200,
10,10,0,M,M,return,2.8210733000014443,None,space,1,0.4829122000010102,0.16818079999939073,,,,,,1,0,1,0,0,1,1,0,0,10,10,4,286.66682630000287,,,,,,,,,,,,,,286.6514696000013,286.66682630000287,286.66682630000287,287.16681470000185,287.6668795000005,287.65061250000144,space,1,0.4829122000010102,0.16818079999939073,,,,,,,,,,,,,7,001,2026-04-20_10h41.48.654,0back,,2025.1.1,60.00088801117306,2026-04-20 10h41.54.837856 +0200,
11,11,0,M,U,return,2.8210733000014443,None,None,0,,,,,,,,1,0,1,0,0,1,1,0,0,11,11,43,287.6668795000005,,,,,,,,,,,,,,287.65191680000135,287.6668795000005,287.6668795000005,288.16685439999856,288.66695150000305,288.6504791999978,None,0,,,,,,,,,,,,,,,7,001,2026-04-20_10h41.48.654,0back,,2025.1.1,60.00088801117306,2026-04-20 10h41.54.837856 +0200,
12,12,0,M,A,return,2.8210733000014443,None,None,0,,,,,,,,1,0,1,0,0,1,1,0,0,12,12,34,288.66695150000305,,,,,,,,,,,,,,288.65198899999814,288.66695150000305,288.66695150000305,289.16688820000127,289.6669914000013,289.6507397000023,None,0,,,,,,,,,,,,,,,7,001,2026-04-20_10h41.48.654,0back,,2025.1.1,60.00088801117306,2026-04-20 10h41.54.837856 +0200,
13,13,0,M,N,return,2.8210733000014443,None,None,0,,,,,,,,1,0,1,0,0,1,1,0,0,13,13,22,289.6669914000013,,,,,,,,,,,,,,289.65200800000457,289.6669914000013,289.6669914000013,290.1668628000043,290.6669058999978,290.6505260999984,None,0,,,,,,,,,,,,,,,7,001,2026-04-20_10h41.48.654,0back,,2025.1.1,60.00088801117306,2026-04-20 10h41.54.837856 +0200,
14,14,0,M,E,return,2.8210733000014443,None,None,0,,,,,,,,1,0,1,0,0,1,1,0,0,14,14,40,290.6669058999978,,,,,,,,,,,,,,290.65186350000295,290.6669058999978,290.6669058999978,291.16695990000153,291.66702559999976,291.6505602000034,None,0,,,,,,,,,,,,,,,7,001,2026-04-20_10h41.48.654,0back,,2025.1.1,60.00088801117306,2026-04-20 10h41.54.837856 +0200,
15,15,0,M,R,return,2.8210733000014443,None,None,0,,,,,,,,1,0,1,0,0,1,1,0,0,15,15,18,291.66702559999976,,,,,,,,,,,,,,291.6518849999993,291.66702559999976,291.66702559999976,292.1668841999999,292.6672624999992,292.6505154000042,None,0,,,,,,,,,,,,,,,7,001,2026-04-20_10h41.48.654,0back,,2025.1.1,60.00088801117306,2026-04-20 10h41.54.837856 +0200,
16,16,0,M,R,return,2.8210733000014443,None,None,0,,,,,,,,1,0,1,0,0,1,1,0,0,16,16,13,292.6672624999992,,,,,,,,,,,,,,292.65063940000255,292.6672624999992,292.6672624999992,293.16692490000423,293.66698680000263,293.6506301000045,None,0,,,,,,,,,,,,,,,7,001,2026-04-20_10h41.48.654,0back,,2025.1.1,60.00088801117306,2026-04-20 10h41.54.837856 +0200,
17,17,0,M,I,return,2.8210733000014443,None,None,0,,,,,,,,1,0,1,0,0,1,1,0,0,17,17,44,293.66698680000263,,,,,,,,,,,,,,293.6518861000004,293.66698680000263,293.66698680000263,294.1671237000046,294.6669428000023,294.650461600002,None,0,,,,,,,,,,,,,,,7,001,2026-04-20_10h41.48.654,0back,,2025.1.1,60.00088801117306,2026-04-20 10h41.54.837856 +0200,
18,18,0,M,O,return,2.8210733000014443,None,None,0,,,,,,,,1,0,1,0,0,1,1,0,0,18,18,45,294.6669428000023,,,,,,,,,,,,,,294.6517684999999,294.6669428000023,294.6669428000023,295.1670096000016,295.6669836000001,295.6504755999995,None,0,,,,,,,,,,,,,,,7,001,2026-04-20_10h41.48.654,0back,,2025.1.1,60.00088801117306,2026-04-20 10h41.54.837856 +0200,
