thisN,thisTrialN,thisRepN,target,thisLetter,key_resp_2.keys,key_resp_2.rt,key_resp_2.duration,key_resp.keys,key_resp.corr,key_resp.rt,key_resp.duration,RSME_ticks.response,RSME_ticks.rt,button_next_11.numClicks,button_next_11.timesOn,button_next_11.timesOff,Blocks_X6.thisRepN,Blocks_X6.thisTrialN,Blocks_X6.thisN,Blocks_X6.thisIndex,Sequence_of_targets_X4.thisRepN,Sequence_of_targets_X4.thisTrialN,Sequence_of_targets_X4.thisN,Sequence_of_targets_X4.thisIndex,trial_X50.thisRepN,trial_X50.thisTrialN,trial_X50.thisN,trial_X50.thisIndex,thisRow.t,notes,INIT_LSL.started,text_init.started,INIT_LSL.stopped,INTRO_PRE_BLOCK.started,text.started,key_resp_2.started,text_6.started,text_7.started,INTRO_PRE_BLOCK.stopped,Sequence_of_targets_X4.key_resp_2.keys,Sequence_of_targets_X4.key_resp_2.rt,Sequence_of_targets_X4.key_resp_2.duration,One_Trial.started,Letter.started,key_resp.started,Letter.stopped,key_resp.stopped,One_Trial.stopped,trial_X50.key_resp.keys,trial_X50.key_resp.corr,trial_X50.key_resp.rt,trial_X50.key_resp.duration,KSS_POST_BLOCK.started,RSME_labels.started,RSME_ticks.started,RSME_text.started,answer1_text.started,button_next_11.started,KSS_POST_BLOCK.stopped,Blocks_X6.RSME_ticks.response,Blocks_X6.RSME_ticks.rt,Blocks_X6.button_next_11.numClicks,Blocks_X6.button_next_11.timesOn,Blocks_X6.button_next_11.timesOff,participant,session,date,expName,expVersion,psychopyVersion,frameRate,expStart,
,,,,,,,,,,,,,,,,,,,,,,,,,,,,,,,0.0052500000019790605,0.007506900001317263,1.0024820999969961,,,,,,,,,,,,,,,,,,,,,,,,,,,,,,,,1,001,2026-04-10_15h48.35.876,0back,,2025.1.1,59.551742126051096,2026-04-10 15h48.43.703432 +0200,
0,0,0,R,N,return,8.925674800004344,None,None,0,,,,,,,,0,0,0,0,0,0,0,1,0,0,0,23,9.969056399990222,,,,,1.010079899991979,1.0191285999899264,1.0191285999899264,1.0191285999899264,1.0191285999899264,9.95624339999631,return,8.925674800004344,None,9.962834199992358,9.969056399990222,9.969056399990222,10.469051499996567,10.969163999994635,10.952488399998401,None,0,,,,,,,,,,,,,,,1,001,2026-04-10_15h48.35.876,0back,,2025.1.1,59.551742126051096,2026-04-10 15h48.43.703432 +0200,
1,1,0,R,N,return,8.925674800004344,None,None,0,,,,,,,,0,0,0,0,0,0,0,1,0,1,1,20,10.969163999994635,,,,,,,,,,,,,,10.952617799994186,10.969163999994635,10.969163999994635,11.469056499990984,11.969060299990815,11.952543499995954,None,0,,,,,,,,,,,,,,,1,001,2026-04-10_15h48.35.876,0back,,2025.1.1,59.551742126051096,2026-04-10 15h48.43.703432 +0200,
2,2,0,R,E,return,8.925674800004344,None,None,0,,,,,,,,0,0,0,0,0,0,0,1,0,2,2,40,11.969060299990815,,,,,,,,,,,,,,11.953825699994923,11.969060299990815,11.969060299990815,12.469067099998938,12.969007699997746,12.952654699998675,None,0,,,,,,,,,,,,,,,1,001,2026-04-10_15h48.35.876,0back,,2025.1.1,59.551742126051096,2026-04-10 15h48.43.703432 +0200,
3,3,0,R,N,return,8.925674800004344,None,None,0,,,,,,,,0,0,0,0,0,0,0,1,0,3,3,28,12.969007699997746,,,,,,,,,,,,,,12.953848199991626,12.969007699997746,12.969007699997746,13.46948970000085,13.969151999990572,13.952593699999852,None,0,,,,,,,,,,,,,,,1,001,2026-04-10_15h48.35.876,0back,,2025.1.1,59.551742126051096,2026-04-10 15h48.43.703432 +0200,
4,4,0,R,A,return,8.925674800004344,None,None,0,,,,,,,,0,0,0,0,0,0,0,1,0,4,4,34,13.969151999990572,,,,,,,,,,,,,,13.953960899991216,13.969151999990572,13.969151999990572,14.469040999989375,14.969090799990227,14.952820899998187,None,0,,,,,,,,,,,,,,,1,001,2026-04-10_15h48.35.876,0back,,2025.1.1,59.551742126051096,2026-04-10 15h48.43.703432 +0200,
5,5,0,R,R,return,8.925674800004344,None,space,1,0.37553909998678137,0.05579080000461545,,,,,,0,0,0,0,0,0,0,1,0,5,5,17,14.969090799990227,,,,,,,,,,,,,,14.954825099994196,14.969090799990227,14.969090799990227,15.46964619999926,15.969029100000625,15.952499199993326,space,1,0.37553909998678137,0.05579080000461545,,,,,,,,,,,,,1,001,2026-04-10_15h48.35.876,0back,,2025.1.1,59.551742126051096,2026-04-10 15h48.43.703432 +0200,
6,6,0,R,N,return,8.925674800004344,None,None,0,,,,,,,,0,0,0,0,0,0,0,1,0,6,6,27,15.969029100000625,,,,,,,,,,,,,,15.95371289999457,15.969029100000625,15.969029100000625,16.469095899999957,16.969090400001733,16.952475500002038,None,0,,,,,,,,,,,,,,,1,001,2026-04-10_15h48.35.876,0back,,2025.1.1,59.551742126051096,2026-04-10 15h48.43.703432 +0200,
7,7,0,R,R,return,8.925674800004344,None,space,1,0.3913919999904465,0.07291780000377912,,,,,,0,0,0,0,0,0,0,1,0,7,7,11,16.969090400001733,,,,,,,,,,,,,,16.95470529999875,16.969090400001733,16.969090400001733,17.469058199989377,17.96908290000283,17.952501299994765,space,1,0.3913919999904465,0.07291780000377912,,,,,,,,,,,,,1,001,2026-04-10_15h48.35.876,0back,,2025.1.1,59.551742126051096,2026-04-10 15h48.43.703432 +0200,
8,8,0,R,Q,return,8.925674800004344,None,None,0,,,,,,,,0,0,0,0,0,0,0,1,0,8,8,47,17.96908290000283,,,,,,,,,,,,,,17.95538800000213,17.96908290000283,17.96908290000283,18.46899819999817,18.96900499999174,18.952456999992137,None,0,,,,,,,,,,,,,,,1,001,2026-04-10_15h48.35.876,0back,,2025.1.1,59.551742126051096,2026-04-10 15h48.43.703432 +0200,
9,9,0,R,R,return,8.925674800004344,None,space,1,0.35978840000461787,0.07173550000879914,,,,,,0,0,0,0,0,0,0,1,0,9,9,15,18.96900499999174,,,,,,,,,,,,,,18.954165499992087,18.96900499999174,18.96900499999174,19.469150199991418,19.96908879998955,19.952615200003493,space,1,0.35978840000461787,0.07173550000879914,,,,,,,,,,,,,1,001,2026-04-10_15h48.35.876,0back,,2025.1.1,59.551742126051096,2026-04-10 15h48.43.703432 +0200,
10,10,0,R,R,return,8.925674800004344,None,space,1,0.49533940000401344,0.056080299997120164,,,,,,0,0,0,0,0,0,0,1,0,10,10,9,19.96908879998955,,,,,,,,,,,,,,19.95342150000215,19.96908879998955,19.96908879998955,20.468987599990214,20.969193099997938,20.95256399999198,space,1,0.49533940000401344,0.056080299997120164,,,,,,,,,,,,,1,001,2026-04-10_15h48.35.876,0back,,2025.1.1,59.551742126051096,2026-04-10 15h48.43.703432 +0200,
11,11,0,R,M,return,8.925674800004344,None,None,0,,,,,,,,0,0,0,0,0,0,0,1,0,11,11,5,20.969193099997938,,,,,,,,,,,,,,20.954996999993455,20.969193099997938,20.969193099997938,21.46910649999336,21.96919909999997,21.952486399997724,None,0,,,,,,,,,,,,,,,1,001,2026-04-10_15h48.35.876,0back,,2025.1.1,59.551742126051096,2026-04-10 15h48.43.703432 +0200,
12,12,0,R,A,return,8.925674800004344,None,None,0,,,,,,,,0,0,0,0,0,0,0,1,0,12,12,36,21.96919909999997,,,,,,,,,,,,,,21.953660500003025,21.96919909999997,21.96919909999997,22.469102599992766,22.96916439999768,22.95244459999958,None,0,,,,,,,,,,,,,,,1,001,2026-04-10_15h48.35.876,0back,,2025.1.1,59.551742126051096,2026-04-10 15h48.43.703432 +0200,
13,13,0,R,N,return,8.925674800004344,None,None,0,,,,,,,,0,0,0,0,0,0,0,1,0,13,13,26,22.96916439999768,,,,,,,,,,,,,,22.953818399997544,22.96916439999768,22.96916439999768,23.469129899996915,23.969094999993104,23.952701999995043,None,0,,,,,,,,,,,,,,,1,001,2026-04-10_15h48.35.876,0back,,2025.1.1,59.551742126051096,2026-04-10 15h48.43.703432 +0200,
14,14,0,R,N,return,8.925674800004344,None,None,0,,,,,,,,0,0,0,0,0,0,0,1,0,14,14,19,23.969094999993104,,,,,,,,,,,,,,23.95292339999287,23.969094999993104,23.969094999993104,24.46907769999234,24.969013399997493,24.952462699991884,None,0,,,,,,,,,,,,,,,1,001,2026-04-10_15h48.35.876,0back,,2025.1.1,59.551742126051096,2026-04-10 15h48.43.703432 +0200,
15,15,0,R,A,return,8.925674800004344,None,None,0,,,,,,,,0,0,0,0,0,0,0,1,0,15,15,38,24.969013399997493,,,,,,,,,,,,,,24.953722899997956,24.969013399997493,24.969013399997493,25.46910210000351,25.969006899991655,25.952547799999593,None,0,,,,,,,,,,,,,,,1,001,2026-04-10_15h48.35.876,0back,,2025.1.1,59.551742126051096,2026-04-10 15h48.43.703432 +0200,
16,16,0,R,N,return,8.925674800004344,None,None,0,,,,,,,,0,0,0,0,0,0,0,1,0,16,16,24,25.969006899991655,,,,,,,,,,,,,,25.95374539999466,25.969006899991655,25.969006899991655,26.469039499992505,26.96907409999403,26.9527306999953,None,0,,,,,,,,,,,,,,,1,001,2026-04-10_15h48.35.876,0back,,2025.1.1,59.551742126051096,2026-04-10 15h48.43.703432 +0200,
17,17,0,R,M,return,8.925674800004344,None,None,0,,,,,,,,0,0,0,0,0,0,0,1,0,17,17,1,26.96907409999403,,,,,,,,,,,,,,26.953904199996032,26.96907409999403,26.96907409999403,27.469003699996392,27.96908149999217,27.952732099991408,None,0,,,,,,,,,,,,,,,1,001,2026-04-10_15h48.35.876,0back,,2025.1.1,59.551742126051096,2026-04-10 15h48.43.703432 +0200,
18,18,0,R,R,return,8.925674800004344,None,space,1,0.3679340999951819,0.047140199996647425,,,,,,0,0,0,0,0,0,0,1,0,18,18,14,27.96908149999217,,,,,,,,,,,,,,27.955139999990934,27.96908149999217,27.96908149999217,28.469101800001226,28.969134500002838,28.95253939999384,space,1,0.3679340999951819,0.047140199996647425,,,,,,,,,,,,,1,001,2026-04-10_15h48.35.876,0back,,2025.1.1,59.551742126051096,2026-04-10 15h48.43.703432 +0200,
19,19,0,R,R,return,8.925674800004344,None,space,1,0.43895169999450445,0.05602129999897443,,,,,,0,0,0,0,0,0,0,1,0,19,19,18,28.969134500002838,,,,,,,,,,,,,,28.953386399996816,28.969134500002838,28.969134500002838,29.46900939999614,29.969130400000722,29.95257290000154,space,1,0.43895169999450445,0.05602129999897443,,,,,,,,,,,,,1,001,2026-04-10_15h48.35.876,0back,,2025.1.1,59.551742126051096,2026-04-10 15h48.43.703432 +0200,
20,20,0,R,M,return,8.925674800004344,None,None,0,,,,,,,,0,0,0,0,0,0,0,1,0,20,20,8,29.969130400000722,,,,,,,,,,,,,,29.95378339999297,29.969130400000722,29.969130400000722,30.46906969998963,30.969151999990572,30.952510799994343,None,0,,,,,,,,,,,,,,,1,001,2026-04-10_15h48.35.876,0back,,2025.1.1,59.551742126051096,2026-04-10 15h48.43.703432 +0200,
21,21,0,R,M,return,8.925674800004344,None,None,0,,,,,,,,0,0,0,0,0,0,0,1,0,21,21,2,30.969151999990572,,,,,,,,,,,,,,30.952631199994357,30.969151999990572,30.969151999990572,31.469066399993608,31.969067500001984,31.952708199998597,None,0,,,,,,,,,,,,,,,1,001,2026-04-10_15h48.35.876,0back,,2025.1.1,59.551742126051096,2026-04-10 15h48.43.703432 +0200,
22,22,0,R,Y,return,8.925674800004344,None,None,0,,,,,,,,0,0,0,0,0,0,0,1,0,22,22,42,31.969067500001984,,,,,,,,,,,,,,31.955025699993712,31.969067500001984,31.969067500001984,32.46902869999758,32.969106299991836,32.95271199999843,None,0,,,,,,,,,,,,,,,1,001,2026-04-10_15h48.35.876,0back,,2025.1.1,59.551742126051096,2026-04-10 15h48.43.703432 +0200,
23,23,0,R,O,return,8.925674800004344,None,None,0,,,,,,,,0,0,0,0,0,0,0,1,0,23,23,45,32.969106299991836,,,,,,,,,,,,,,32.95570549998956,32.969106299991836,32.969106299991836,33.46902499999851,33.969251499991515,33.95286439999472,None,0,,,,,,,,,,,,,,,1,001,2026-04-10_15h48.35.876,0back,,2025.1.1,59.551742126051096,2026-04-10 15h48.43.703432 +0200,
24,24,0,R,R,return,8.925674800004344,None,space,1,0.4149716000101762,0.05575469999166671,,,,,,0,0,0,0,0,0,0,1,0,24,24,10,33.969251499991515,,,,,,,,,,,,,,33.95497500000056,33.969251499991515,33.969251499991515,34.469060999996145,34.969069200000376,34.95277309999801,space,1,0.4149716000101762,0.05575469999166671,,,,,,,,,,,,,1,001,2026-04-10_15h48.35.876,0back,,2025.1.1,59.551742126051096,2026-04-10 15h48.43.703432 +0200,
25,25,0,R,M,return,8.925674800004344,None,None,0,,,,,,,,0,0,0,0,0,0,0,1,0,25,25,0,34.969069200000376,,,,,,,,,,,,,,34.953996299998835,34.969069200000376,34.969069200000376,35.46908290000283,35.96909329999471,35.95262489999004,None,0,,,,,,,,,,,,,,,1,001,2026-04-10_15h48.35.876,0back,,2025.1.1,59.551742126051096,2026-04-10 15h48.43.703432 +0200,
26,26,0,R,U,return,8.925674800004344,None,None,0,,,,,,,,0,0,0,0,0,0,0,1,0,26,26,43,35.96909329999471,,,,,,,,,,,,,,35.95475809999334,35.96909329999471,35.96909329999471,36.469083999996656,36.96909269999014,36.95253429999866,None,0,,,,,,,,,,,,,,,1,001,2026-04-10_15h48.35.876,0back,,2025.1.1,59.551742126051096,2026-04-10 15h48.43.703432 +0200,
27,27,0,R,A,return,8.925674800004344,None,None,0,,,,,,,,0,0,0,0,0,0,0,1,0,27,27,35,36.96909269999014,,,,,,,,,,,,,,36.953808099991875,36.96909269999014,36.96909269999014,37.469107700002496,37.969032799999695,37.9524570999929,None,0,,,,,,,,,,,,,,,1,001,2026-04-10_15h48.35.876,0back,,2025.1.1,59.551742126051096,2026-04-10 15h48.43.703432 +0200,
28,28,0,R,A,return,8.925674800004344,None,None,0,,,,,,,,0,0,0,0,0,0,0,1,0,28,28,31,37.969032799999695,,,,,,,,,,,,,,37.95257510000374,37.969032799999695,37.969032799999695,38.46907110000029,38.9690830999898,38.95271270000376,None,0,,,,,,,,,,,,,,,1,001,2026-04-10_15h48.35.876,0back,,2025.1.1,59.551742126051096,2026-04-10 15h48.43.703432 +0200,
29,29,0,R,A,return,8.925674800004344,None,None,0,,,,,,,,0,0,0,0,0,0,0,1,0,29,29,33,38.9690830999898,,,,,,,,,,,,,,38.95292959999642,38.9690830999898,38.9690830999898,39.46910339999886,39.96907989999454,39.95254600000044,None,0,,,,,,,,,,,,,,,1,001,2026-04-10_15h48.35.876,0back,,2025.1.1,59.551742126051096,2026-04-10 15h48.43.703432 +0200,
30,30,0,R,A,return,8.925674800004344,None,None,0,,,,,,,,0,0,0,0,0,0,0,1,0,30,30,29,39.96907989999454,,,,,,,,,,,,,,39.952679199996055,39.96907989999454,39.96907989999454,40.469052899992676,40.969064599994454,40.952603600002476,None,0,,,,,,,,,,,,,,,1,001,2026-04-10_15h48.35.876,0back,,2025.1.1,59.551742126051096,2026-04-10 15h48.43.703432 +0200,
31,31,0,R,D,return,8.925674800004344,None,None,0,,,,,,,,0,0,0,0,0,0,0,1,0,31,31,48,40.969064599994454,,,,,,,,,,,,,,40.95489159999124,40.969064599994454,40.969064599994454,41.46910289999505,41.96910819999175,41.952549499997986,None,0,,,,,,,,,,,,,,,1,001,2026-04-10_15h48.35.876,0back,,2025.1.1,59.551742126051096,2026-04-10 15h48.43.703432 +0200,
32,32,0,R,A,return,8.925674800004344,None,None,0,,,,,,,,0,0,0,0,0,0,0,1,0,32,32,32,41.96910819999175,,,,,,,,,,,,,,41.95373709998967,41.96910819999175,41.96910819999175,42.46912969999539,42.96909329999471,42.95254489999206,None,0,,,,,,,,,,,,,,,1,001,2026-04-10_15h48.35.876,0back,,2025.1.1,59.551742126051096,2026-04-10 15h48.43.703432 +0200,
33,33,0,R,I,return,8.925674800004344,None,None,0,,,,,,,,0,0,0,0,0,0,0,1,0,33,33,44,42.96909329999471,,,,,,,,,,,,,,42.95431220000319,42.96909329999471,42.96909329999471,43.4691152000014,43.96902879999834,43.952515400000266,None,0,,,,,,,,,,,,,,,1,001,2026-04-10_15h48.35.876,0back,,2025.1.1,59.551742126051096,2026-04-10 15h48.43.703432 +0200,
34,34,0,R,P,return,8.925674800004344,None,None,0,,,,,,,,0,0,0,0,0,0,0,1,0,34,34,46,43.96902879999834,,,,,,,,,,,,,,43.95473409999977,43.96902879999834,43.96902879999834,44.46912660000089,44.96918119999464,44.95269439999538,None,0,,,,,,,,,,,,,,,1,001,2026-04-10_15h48.35.876,0back,,2025.1.1,59.551742126051096,2026-04-10 15h48.43.703432 +0200,
35,35,0,R,M,return,8.925674800004344,None,None,0,,,,,,,,0,0,0,0,0,0,0,1,0,35,35,7,44.96918119999464,,,,,,,,,,,,,,44.953906599999755,44.96918119999464,44.96918119999464,45.46913230000064,45.96910649999336,45.952697000000626,None,0,,,,,,,,,,,,,,,1,001,2026-04-10_15h48.35.876,0back,,2025.1.1,59.551742126051096,2026-04-10 15h48.43.703432 +0200,
36,36,0,R,M,return,8.925674800004344,None,None,0,,,,,,,,0,0,0,0,0,0,0,1,0,36,36,6,45.96910649999336,,,,,,,,,,,,,,45.9528319999954,45.96910649999336,45.96910649999336,46.46908959999564,46.96911399999226,46.95260530000087,None,0,,,,,,,,,,,,,,,1,001,2026-04-10_15h48.35.876,0back,,2025.1.1,59.551742126051096,2026-04-10 15h48.43.703432 +0200,
37,37,0,R,T,return,8.925674800004344,None,None,0,,,,,,,,0,0,0,0,0,0,0,1,0,37,37,41,46.96911399999226,,,,,,,,,,,,,,46.954741199995624,46.96911399999226,46.96911399999226,47.469062499993015,47.96909309999319,47.95265449999715,None,0,,,,,,,,,,,,,,,1,001,2026-04-10_15h48.35.876,0back,,2025.1.1,59.551742126051096,2026-04-10 15h48.43.703432 +0200,
38,38,0,R,M,return,8.925674800004344,None,None,0,,,,,,,,0,0,0,0,0,0,0,1,0,38,38,3,47.96909309999319,,,,,,,,,,,,,,47.95392539999739,47.96909309999319,47.96909309999319,48.46907409999403,48.96919429999252,48.952608699997654,None,0,,,,,,,,,,,,,,,1,001,2026-04-10_15h48.35.876,0back,,2025.1.1,59.551742126051096,2026-04-10 15h48.43.703432 +0200,
39,39,0,R,N,return,8.925674800004344,None,None,0,,,,,,,,0,0,0,0,0,0,0,1,0,39,39,22,48.96919429999252,,,,,,,,,,,,,,48.95386629999848,48.96919429999252,48.96919429999252,49.46906209998997,49.96941360000346,49.9525905999908,None,0,,,,,,,,,,,,,,,1,001,2026-04-10_15h48.35.876,0back,,2025.1.1,59.551742126051096,2026-04-10 15h48.43.703432 +0200,
40,40,0,R,R,return,8.925674800004344,None,space,1,0.45485999999800697,0.06351910000375938,,,,,,0,0,0,0,0,0,0,1,0,40,40,13,49.96941360000346,,,,,,,,,,,,,,49.95467429999553,49.96941360000346,49.96941360000346,50.469118699998944,50.969101099995896,50.95251669999561,space,1,0.45485999999800697,0.06351910000375938,,,,,,,,,,,,,1,001,2026-04-10_15h48.35.876,0back,,2025.1.1,59.551742126051096,2026-04-10 15h48.43.703432 +0200,
41,41,0,R,Z,return,8.925674800004344,None,None,0,,,,,,,,0,0,0,0,0,0,0,1,0,41,41,39,50.969101099995896,,,,,,,,,,,,,,50.95468090000213,50.969101099995896,50.969101099995896,51.470051299998886,51.96912039999734,51.95255129999714,None,0,,,,,,,,,,,,,,,1,001,2026-04-10_15h48.35.876,0back,,2025.1.1,59.551742126051096,2026-04-10 15h48.43.703432 +0200,
42,42,0,R,A,return,8.925674800004344,None,None,0,,,,,,,,0,0,0,0,0,0,0,1,0,42,42,37,51.96912039999734,,,,,,,,,,,,,,51.95395139999164,51.96912039999734,51.96912039999734,52.46901220000291,52.96909679999226,52.95257599999604,None,0,,,,,,,,,,,,,,,1,001,2026-04-10_15h48.35.876,0back,,2025.1.1,59.551742126051096,2026-04-10 15h48.43.703432 +0200,
43,43,0,R,C,return,8.925674800004344,None,None,0,,,,,,,,0,0,0,0,0,0,0,1,0,43,43,49,52.96909679999226,,,,,,,,,,,,,,52.9549801999965,52.96909679999226,52.96909679999226,53.469088400001056,53.96907710000232,53.95299839999643,None,0,,,,,,,,,,,,,,,1,001,2026-04-10_15h48.35.876,0back,,2025.1.1,59.551742126051096,2026-04-10 15h48.43.703432 +0200,
44,44,0,R,N,return,8.925674800004344,None,None,0,,,,,,,,0,0,0,0,0,0,0,1,0,44,44,25,53.96907710000232,,,,,,,,,,,,,,53.95429699998931,53.96907710000232,53.96907710000232,54.46903769999335,54.96957370000018,54.952832499999204,None,0,,,,,,,,,,,,,,,1,001,2026-04-10_15h48.35.876,0back,,2025.1.1,59.551742126051096,2026-04-10 15h48.43.703432 +0200,
45,45,0,R,M,return,8.925674800004344,None,None,0,,,,,,,,0,0,0,0,0,0,0,1,0,45,45,4,54.96957370000018,,,,,,,,,,,,,,54.954146099989885,54.96957370000018,54.96957370000018,55.46910889999708,55.96957659999316,55.95264190000307,None,0,,,,,,,,,,,,,,,1,001,2026-04-10_15h48.35.876,0back,,2025.1.1,59.551742126051096,2026-04-10 15h48.43.703432 +0200,
46,46,0,R,R,return,8.925674800004344,None,space,1,0.39117930000065826,0.07108780000999104,,,,,,0,0,0,0,0,0,0,1,0,46,46,16,55.96957659999316,,,,,,,,,,,,,,55.95458130000043,55.96957659999316,55.96957659999316,56.469146999996156,56.969110699996236,56.95265720000316,space,1,0.39117930000065826,0.07108780000999104,,,,,,,,,,,,,1,001,2026-04-10_15h48.35.876,0back,,2025.1.1,59.551742126051096,2026-04-10 15h48.43.703432 +0200,
47,47,0,R,R,return,8.925674800004344,None,space,1,0.47919299999193754,0.0637505000049714,,,,,,0,0,0,0,0,0,0,1,0,47,47,12,56.969110699996236,,,,,,,,,,,,,,56.953610199998366,56.969110699996236,56.969110699996236,57.46901929999876,57.969110799997,57.95252819999587,space,1,0.47919299999193754,0.0637505000049714,,,,,,,,,,,,,1,001,2026-04-10_15h48.35.876,0back,,2025.1.1,59.551742126051096,2026-04-10 15h48.43.703432 +0200,
48,48,0,R,N,return,8.925674800004344,None,None,0,,,,,,,,0,0,0,0,0,0,0,1,0,48,48,21,57.969110799997,,,,,,,,,,,,,,57.95373259999906,57.969110799997,57.969110799997,58.46912379999412,58.969166299997596,58.95270670000173,None,0,,,,,,,,,,,,,,,1,001,2026-04-10_15h48.35.876,0back,,2025.1.1,59.551742126051096,2026-04-10 15h48.43.703432 +0200,
49,49,0,R,A,return,8.925674800004344,None,None,0,,,,,,,,0,0,0,0,0,0,0,1,0,49,49,30,58.969166299997596,,,,,,,,,,,,,,58.953887399999076,58.969166299997596,58.969166299997596,59.46903189999284,59.96914069999184,59.95254539999587,None,0,,,,,,,,,,,,,,,1,001,2026-04-10_15h48.35.876,0back,,2025.1.1,59.551742126051096,2026-04-10 15h48.43.703432 +0200,
0,0,0,R,,return,8.925674800004344,None,,,,,,,,,,0,0,0,0,0,0,0,1,,,,,,,,,,,,,,,,,,,,,,,,,,,,,,,,,,,,,,,,,1,001,2026-04-10_15h48.35.876,0back,,2025.1.1,59.551742126051096,2026-04-10 15h48.43.703432 +0200,
0,0,0,A,R,return,2.7673264000040945,None,None,0,,,,,,,,0,0,0,0,0,1,1,2,0,0,0,13,62.76910209999187,,,,,59.958639999997104,59.96914069999184,59.96914069999184,59.96914069999184,59.96914069999184,62.752688099993975,return,2.7673264000040945,None,62.75856659999408,62.76910209999187,62.76910209999187,63.269078800003626,63.7691516999912,63.7526979999966,None,0,,,,,,,,,,,,,,,1,001,2026-04-10_15h48.35.876,0back,,2025.1.1,59.551742126051096,2026-04-10 15h48.43.703432 +0200,
1,1,0,A,M,return,2.7673264000040945,None,None,0,,,,,,,,0,0,0,0,0,1,1,2,0,1,1,3,63.7691516999912,,,,,,,,,,,,,,63.75407219999761,63.7691516999912,63.7691516999912,64.26906359998975,64.76907629999914,64.75261159999354,None,0,,,,,,,,,,,,,,,1,001,2026-04-10_15h48.35.876,0back,,2025.1.1,59.551742126051096,2026-04-10 15h48.43.703432 +0200,
2,2,0,A,A,return,2.7673264000040945,None,space,1,0.35162270000728313,0.07154389999050181,,,,,,0,0,0,0,0,1,1,2,0,2,2,33,64.76907629999914,,,,,,,,,,,,,,64.75446369999554,64.76907629999914,64.76907629999914,65.26911399999517,65.76904649999051,65.75293849999434,space,1,0.35162270000728313,0.07154389999050181,,,,,,,,,,,,,1,001,2026-04-10_15h48.35.876,0back,,2025.1.1,59.551742126051096,2026-04-10 15h48.43.703432 +0200,
3,3,0,A,N,return,2.7673264000040945,None,None,0,,,,,,,,0,0,0,0,0,1,1,2,0,3,3,27,65.76904649999051,,,,,,,,,,,,,,65.7561718999932,65.76904649999051,65.76904649999051,66.2691319000005,66.7690908999939,66.75275099999271,None,0,,,,,,,,,,,,,,,1,001,2026-04-10_15h48.35.876,0back,,2025.1.1,59.551742126051096,2026-04-10 15h48.43.703432 +0200,
4,4,0,A,A,return,2.7673264000040945,None,space,1,0.3190630000026431,0.07179010000254493,,,,,,0,0,0,0,0,1,1,2,0,4,4,31,66.7690908999939,,,,,,,,,,,,,,66.75473889999557,66.7690908999939,66.7690908999939,67.2695517999964,67.76908319999347,67.75262859999202,space,1,0.3190630000026431,0.07179010000254493,,,,,,,,,,,,,1,001,2026-04-10_15h48.35.876,0back,,2025.1.1,59.551742126051096,2026-04-10 15h48.43.703432 +0200,
5,5,0,A,N,return,2.7673264000040945,None,None,0,,,,,,,,0,0,0,0,0,1,1,2,0,5,5,20,67.76908319999347,,,,,,,,,,,,,,67.75389249999716,67.76908319999347,67.76908319999347,68.26911320000363,68.76909249999153,68.75260969999363,None,0,,,,,,,,,,,,,,,1,001,2026-04-10_15h48.35.876,0back,,2025.1.1,59.551742126051096,2026-04-10 15h48.43.703432 +0200,
6,6,0,A,A,return,2.7673264000040945,None,space,1,0.31078150001121685,0.07210839999606833,,,,,,0,0,0,0,0,1,1,2,0,6,6,38,68.76909249999153,,,,,,,,,,,,,,68.7543655999907,68.76909249999153,68.76909249999153,69.2691133999906,69.7690614000021,69.75268939998932,space,1,0.31078150001121685,0.07210839999606833,,,,,,,,,,,,,1,001,2026-04-10_15h48.35.876,0back,,2025.1.1,59.551742126051096,2026-04-10 15h48.43.703432 +0200,
7,7,0,A,U,return,2.7673264000040945,None,None,0,,,,,,,,0,0,0,0,0,1,1,2,0,7,7,43,69.7690614000021,,,,,,,,,,,,,,69.75386009999784,69.7690614000021,69.7690614000021,70.26905599999009,70.76908230000117,70.75264639999659,None,0,,,,,,,,,,,,,,,1,001,2026-04-10_15h48.35.876,0back,,2025.1.1,59.551742126051096,2026-04-10 15h48.43.703432 +0200,
8,8,0,A,R,return,2.7673264000040945,None,None,0,,,,,,,,0,0,0,0,0,1,1,2,0,8,8,17,70.76908230000117,,,,,,,,,,,,,,70.75435289999587,70.76908230000117,70.76908230000117,71.26908529999491,71.76908009999897,71.75256529999024,None,0,,,,,,,,,,,,,,,1,001,2026-04-10_15h48.35.876,0back,,2025.1.1,59.551742126051096,2026-04-10 15h48.43.703432 +0200,
9,9,0,A,N,return,2.7673264000040945,None,None,0,,,,,,,,0,0,0,0,0,1,1,2,0,9,9,22,71.76908009999897,,,,,,,,,,,,,,71.7536892999924,71.76908009999897,71.76908009999897,72.26902870000049,72.76913200000126,72.75278139999136,None,0,,,,,,,,,,,,,,,1,001,2026-04-10_15h48.35.876,0back,,2025.1.1,59.551742126051096,2026-04-10 15h48.43.703432 +0200,
10,10,0,A,E,return,2.7673264000040945,None,None,0,,,,,,,,0,0,0,0,0,1,1,2,0,10,10,40,72.76913200000126,,,,,,,,,,,,,,72.75397330000123,72.76913200000126,72.76913200000126,73.26914279999619,73.76916179999535,73.7524962000025,None,0,,,,,,,,,,,,,,,1,001,2026-04-10_15h48.35.876,0back,,2025.1.1,59.551742126051096,2026-04-10 15h48.43.703432 +0200,
11,11,0,A,R,return,2.7673264000040945,None,None,0,,,,,,,,0,0,0,0,0,1,1,2,0,11,11,10,73.76916179999535,,,,,,,,,,,,,,73.75380169998971,73.76916179999535,73.76916179999535,74.2691732999956,74.76912729999458,74.7527689999988,None,0,,,,,,,,,,,,,,,1,001,2026-04-10_15h48.35.876,0back,,2025.1.1,59.551742126051096,2026-04-10 15h48.43.703432 +0200,
12,12,0,A,M,return,2.7673264000040945,None,None,0,,,,,,,,0,0,0,0,0,1,1,2,0,12,12,7,74.76912729999458,,,,,,,,,,,,,,74.75529020000249,74.76912729999458,74.76912729999458,75.26910130000033,75.76949769999192,75.75251130000106,None,0,,,,,,,,,,,,,,,1,001,2026-04-10_15h48.35.876,0back,,2025.1.1,59.551742126051096,2026-04-10 15h48.43.703432 +0200,
13,13,0,A,A,return,2.7673264000040945,None,space,1,0.31098090000159573,0.08788789999380242,,,,,,0,0,0,0,0,1,1,2,0,13,13,34,75.76949769999192,,,,,,,,,,,,,,75.75433450000128,75.76949769999192,75.76949769999192,76.26905089999491,76.76917610000237,76.75252699998964,space,1,0.31098090000159573,0.08788789999380242,,,,,,,,,,,,,1,001,2026-04-10_15h48.35.876,0back,,2025.1.1,59.551742126051096,2026-04-10 15h48.43.703432 +0200,
14,14,0,A,A,return,2.7673264000040945,None,space,1,0.44918650000181515,0.06990200000291225,,,,,,0,0,0,0,0,1,1,2,0,14,14,35,76.76917610000237,,,,,,,,,,,,,,76.75335329999507,76.76917610000237,76.76917610000237,77.26907789999677,77.76910520000092,77.75259039999219,space,1,0.44918650000181515,0.06990200000291225,,,,,,,,,,,,,1,001,2026-04-10_15h48.35.876,0back,,2025.1.1,59.551742126051096,2026-04-10 15h48.43.703432 +0200,
15,15,0,A,N,return,2.7673264000040945,None,None,0,,,,,,,,0,0,0,0,0,1,1,2,0,15,15,25,77.76910520000092,,,,,,,,,,,,,,77.75382699999318,77.76910520000092,77.76910520000092,78.26906299999973,78.76904919999652,78.75259659999574,None,0,,,,,,,,,,,,,,,1,001,2026-04-10_15h48.35.876,0back,,2025.1.1,59.551742126051096,2026-04-10 15h48.43.703432 +0200,
16,16,0,A,M,return,2.7673264000040945,None,None,0,,,,,,,,0,0,0,0,0,1,1,2,0,16,16,0,78.76904919999652,,,,,,,,,,,,,,78.75380439999572,78.76904919999652,78.76904919999652,79.26911399999517,79.7690644999966,79.75251489999937,None,0,,,,,,,,,,,,,,,1,001,2026-04-10_15h48.35.876,0back,,2025.1.1,59.551742126051096,2026-04-10 15h48.43.703432 +0200,
17,17,0,A,P,return,2.7673264000040945,None,None,0,,,,,,,,0,0,0,0,0,1,1,2,0,17,17,46,79.7690644999966,,,,,,,,,,,,,,79.75373709999258,79.7690644999966,79.7690644999966,80.26916480000364,80.76916860000347,80.75277239999559,None,0,,,,,,,,,,,,,,,1,001,2026-04-10_15h48.35.876,0back,,2025.1.1,59.551742126051096,2026-04-10 15h48.43.703432 +0200,
18,18,0,A,Z,return,2.7673264000040945,None,None,0,,,,,,,,0,0,0,0,0,1,1,2,0,18,18,39,80.76916860000347,,,,,,,,,,,,,,80.75431059999391,80.76916860000347,80.76916860000347,81.26921169999696,81.76918920000026,81.75255229999311,None,0,,,,,,,,,,,,,,,1,001,2026-04-10_15h48.35.876,0back,,2025.1.1,59.551742126051096,2026-04-10 15h48.43.703432 +0200,
19,19,0,A,M,return,2.7673264000040945,None,None,0,,,,,,,,0,0,0,0,0,1,1,2,0,19,19,2,81.76918920000026,,,,,,,,,,,,,,81.75367439999536,81.76918920000026,81.76918920000026,82.2691710999934,82.7691344999912,82.75260619999608,None,0,,,,,,,,,,,,,,,1,001,2026-04-10_15h48.35.876,0back,,2025.1.1,59.551742126051096,2026-04-10 15h48.43.703432 +0200,
20,20,0,A,N,return,2.7673264000040945,None,None,0,,,,,,,,0,0,0,0,0,1,1,2,0,20,20,21,82.7691344999912,,,,,,,,,,,,,,82.753979599991,82.7691344999912,82.7691344999912,83.26907979999669,83.76903830000083,83.75256110000191,None,0,,,,,,,,,,,,,,,1,001,2026-04-10_15h48.35.876,0back,,2025.1.1,59.551742126051096,2026-04-10 15h48.43.703432 +0200,
21,21,0,A,N,return,2.7673264000040945,None,None,0,,,,,,,,0,0,0,0,0,1,1,2,0,21,21,23,83.76903830000083,,,,,,,,,,,,,,83.75272560000303,83.76903830000083,83.76903830000083,84.26908729999559,,84.7538196999958,None,0,,,,,,,,,,,,,,,1,001,2026-04-10_15h48.35.876,0back,,2025.1.1,59.551742126051096,2026-04-10 15h48.43.703432 +0200,
22,22,0,A,A,return,2.7673264000040945,None,space,1,0.439597299991874,0.07164249999914318,,,,,,0,0,0,0,0,1,1,2,0,22,22,32,84.76905789999,,,,,,,,,,,,,,84.75614949999726,84.76905789999,84.76905789999,85.26943929999834,85.76906829999643,85.75266469999042,space,1,0.439597299991874,0.07164249999914318,,,,,,,,,,,,,1,001,2026-04-10_15h48.35.876,0back,,2025.1.1,59.551742126051096,2026-04-10 15h48.43.703432 +0200,
23,23,0,A,R,return,2.7673264000040945,None,None,0,,,,,,,,0,0,0,0,0,1,1,2,0,23,23,12,85.76906829999643,,,,,,,,,,,,,,85.75417620000371,85.76906829999643,85.76906829999643,86.26921529999527,86.76915469999949,86.75265029999719,None,0,,,,,,,,,,,,,,,1,001,2026-04-10_15h48.35.876,0back,,2025.1.1,59.551742126051096,2026-04-10 15h48.43.703432 +0200,
24,24,0,A,T,return,2.7673264000040945,None,None,0,,,,,,,,0,0,0,0,0,1,1,2,0,24,24,41,86.76915469999949,,,,,,,,,,,,,,86.75382289999106,86.76915469999949,86.76915469999949,87.2692062999995,87.76911229999678,87.75255459999607,None,0,,,,,,,,,,,,,,,1,001,2026-04-10_15h48.35.876,0back,,2025.1.1,59.551742126051096,2026-04-10 15h48.43.703432 +0200,
25,25,0,A,M,return,2.7673264000040945,None,None,0,,,,,,,,0,0,0,0,0,1,1,2,0,25,25,4,87.76911229999678,,,,,,,,,,,,,,87.75377090000256,87.76911229999678,87.76911229999678,88.26908800000092,,88.75360679998994,None,0,,,,,,,,,,,,,,,1,001,2026-04-10_15h48.35.876,0back,,2025.1.1,59.551742126051096,2026-04-10 15h48.43.703432 +0200,
26,26,0,A,M,return,2.7673264000040945,None,None,0,,,,,,,,0,0,0,0,0,1,1,2,0,26,26,8,88.76907049999863,,,,,,,,,,,,,,88.75376079999842,88.76907049999863,88.76907049999863,89.26913179999974,89.76905979998992,89.75248599999759,None,0,,,,,,,,,,,,,,,1,001,2026-04-10_15h48.35.876,0back,,2025.1.1,59.551742126051096,2026-04-10 15h48.43.703432 +0200,
27,27,0,A,Y,return,2.7673264000040945,None,None,0,,,,,,,,0,0,0,0,0,1,1,2,0,27,27,42,89.76905979998992,,,,,,,,,,,,,,89.75363059999654,89.76905979998992,89.76905979998992,90.27020639998955,90.76913369999966,90.7524842999992,None,0,,,,,,,,,,,,,,,1,001,2026-04-10_15h48.35.876,0back,,2025.1.1,59.551742126051096,2026-04-10 15h48.43.703432 +0200,
28,28,0,A,M,return,2.7673264000040945,None,None,0,,,,,,,,0,0,0,0,0,1,1,2,0,28,28,5,90.76913369999966,,,,,,,,,,,,,,90.75376029999461,90.76913369999966,90.76913369999966,91.26907009999559,91.76910910000151,91.75261689999024,None,0,,,,,,,,,,,,,,,1,001,2026-04-10_15h48.35.876,0back,,2025.1.1,59.551742126051096,2026-04-10 15h48.43.703432 +0200,
29,29,0,A,R,return,2.7673264000040945,None,None,0,,,,,,,,0,0,0,0,0,1,1,2,0,29,29,16,91.76910910000151,,,,,,,,,,,,,,91.7548214999988,91.76910910000151,91.76910910000151,92.26907759999449,92.7691155999928,92.7525794999965,None,0,,,,,,,,,,,,,,,1,001,2026-04-10_15h48.35.876,0back,,2025.1.1,59.551742126051096,2026-04-10 15h48.43.703432 +0200,
30,30,0,A,I,return,2.7673264000040945,None,None,0,,,,,,,,0,0,0,0,0,1,1,2,0,30,30,44,92.7691155999928,,,,,,,,,,,,,,92.75397689999954,92.7691155999928,92.7691155999928,93.26907739999297,93.76908319999347,93.75270309999178,None,0,,,,,,,,,,,,,,,1,001,2026-04-10_15h48.35.876,0back,,2025.1.1,59.551742126051096,2026-04-10 15h48.43.703432 +0200,
31,31,0,A,R,return,2.7673264000040945,None,None,0,,,,,,,,0,0,0,0,0,1,1,2,0,31,31,9,93.76908319999347,,,,,,,,,,,,,,93.75433939999493,93.76908319999347,93.76908319999347,94.26914940000279,94.76917739999772,94.75250059999235,None,0,,,,,,,,,,,,,,,1,001,2026-04-10_15h48.35.876,0back,,2025.1.1,59.551742126051096,2026-04-10 15h48.43.703432 +0200,
32,32,0,A,N,return,2.7673264000040945,None,None,0,,,,,,,,0,0,0,0,0,1,1,2,0,32,32,28,94.76917739999772,,,,,,,,,,,,,,94.75367799999367,94.76917739999772,94.76917739999772,95.26907100000244,95.76916979999805,95.7525403000036,None,0,,,,,,,,,,,,,,,1,001,2026-04-10_15h48.35.876,0back,,2025.1.1,59.551742126051096,2026-04-10 15h48.43.703432 +0200,
33,33,0,A,A,return,2.7673264000040945,None,space,1,0.5111962000082713,0.06443240000226069,,,,,,0,0,0,0,0,1,1,2,0,33,33,37,95.76916979999805,,,,,,,,,,,,,,95.754417499993,95.76916979999805,95.76916979999805,96.26918229999137,96.76914189998934,96.75255269999616,space,1,0.5111962000082713,0.06443240000226069,,,,,,,,,,,,,1,001,2026-04-10_15h48.35.876,0back,,2025.1.1,59.551742126051096,2026-04-10 15h48.43.703432 +0200,
34,34,0,A,M,return,2.7673264000040945,None,None,0,,,,,,,,0,0,0,0,0,1,1,2,0,34,34,1,96.76914189998934,,,,,,,,,,,,,,96.75369959999807,96.76914189998934,96.76914189998934,97.26910799999314,97.76911120000295,97.75251659999776,None,0,,,,,,,,,,,,,,,1,001,2026-04-10_15h48.35.876,0back,,2025.1.1,59.551742126051096,2026-04-10 15h48.43.703432 +0200,
35,35,0,A,M,return,2.7673264000040945,None,None,0,,,,,,,,0,0,0,0,0,1,1,2,0,35,35,6,97.76911120000295,,,,,,,,,,,,,,97.75269890000345,97.76911120000295,97.76911120000295,98.26906330000202,98.7691327999928,98.75260219999473,None,0,,,,,,,,,,,,,,,1,001,2026-04-10_15h48.35.876,0back,,2025.1.1,59.551742126051096,2026-04-10 15h48.43.703432 +0200,
36,36,0,A,A,return,2.7673264000040945,None,space,1,0.4072370000067167,0.08921959999133833,,,,,,0,0,0,0,0,1,1,2,0,36,36,29,98.7691327999928,,,,,,,,,,,,,,98.75456370000029,98.7691327999928,98.7691327999928,99.26906489999965,99.76910189999035,99.75260969999363,space,1,0.4072370000067167,0.08921959999133833,,,,,,,,,,,,,1,001,2026-04-10_15h48.35.876,0back,,2025.1.1,59.551742126051096,2026-04-10 15h48.43.703432 +0200,
37,37,0,A,D,return,2.7673264000040945,None,None,0,,,,,,,,0,0,0,0,0,1,1,2,0,37,37,48,99.76910189999035,,,,,,,,,,,,,,99.75387329999649,99.76910189999035,99.76910189999035,100.26912250000169,100.76916029999848,100.75258049998956,None,0,,,,,,,,,,,,,,,1,001,2026-04-10_15h48.35.876,0back,,2025.1.1,59.551742126051096,2026-04-10 15h48.43.703432 +0200,
38,38,0,A,N,return,2.7673264000040945,None,None,0,,,,,,,,0,0,0,0,0,1,1,2,0,38,38,24,100.76916029999848,,,,,,,,,,,,,,100.75412579999829,100.76916029999848,100.76916029999848,101.26915459999873,101.76919979999366,101.75258239998948,None,0,,,,,,,,,,,,,,,1,001,2026-04-10_15h48.35.876,0back,,2025.1.1,59.551742126051096,2026-04-10 15h48.43.703432 +0200,
39,39,0,A,Q,return,2.7673264000040945,None,None,0,,,,,,,,0,0,0,0,0,1,1,2,0,39,39,47,101.76919979999366,,,,,,,,,,,,,,101.75390090000292,101.76919979999366,101.76919979999366,102.2691618999961,102.76912179999636,102.75250609999057,None,0,,,,,,,,,,,,,,,1,001,2026-04-10_15h48.35.876,0back,,2025.1.1,59.551742126051096,2026-04-10 15h48.43.703432 +0200,
40,40,0,A,N,return,2.7673264000040945,None,None,0,,,,,,,,0,0,0,0,0,1,1,2,0,40,40,26,102.76912179999636,,,,,,,,,,,,,,102.7537597999908,102.76912179999636,102.76912179999636,103.2691802999907,103.76910659999703,103.75265949999448,None,0,,,,,,,,,,,,,,,1,001,2026-04-10_15h48.35.876,0back,,2025.1.1,59.551742126051096,2026-04-10 15h48.43.703432 +0200,
41,41,0,A,O,return,2.7673264000040945,None,None,0,,,,,,,,0,0,0,0,0,1,1,2,0,41,41,45,103.76910659999703,,,,,,,,,,,,,,103.7538465999969,103.76910659999703,103.76910659999703,104.26916229999915,104.76913309999509,104.75262129999464,None,0,,,,,,,,,,,,,,,1,001,2026-04-10_15h48.35.876,0back,,2025.1.1,59.551742126051096,2026-04-10 15h48.43.703432 +0200,
42,42,0,A,C,return,2.7673264000040945,None,None,0,,,,,,,,0,0,0,0,0,1,1,2,0,42,42,49,104.76913309999509,,,,,,,,,,,,,,104.75383889999648,104.76913309999509,104.76913309999509,105.2691102999961,105.76912939999602,105.75255819999438,None,0,,,,,,,,,,,,,,,1,001,2026-04-10_15h48.35.876,0back,,2025.1.1,59.551742126051096,2026-04-10 15h48.43.703432 +0200,
43,43,0,A,N,return,2.7673264000040945,None,None,0,,,,,,,,0,0,0,0,0,1,1,2,0,43,43,19,105.76912939999602,,,,,,,,,,,,,,105.75385249999817,105.76912939999602,105.76912939999602,106.26909679999517,106.76912909999373,106.75265769999532,None,0,,,,,,,,,,,,,,,1,001,2026-04-10_15h48.35.876,0back,,2025.1.1,59.551742126051096,2026-04-10 15h48.43.703432 +0200,
44,44,0,A,A,return,2.7673264000040945,None,space,1,0.41584359999978915,0.07182749999628868,,,,,,0,0,0,0,0,1,1,2,0,44,44,30,106.76912909999373,,,,,,,,,,,,,,106.75448249999317,106.76912909999373,106.76912909999373,107.26913030000287,107.76931619999232,107.75256909999007,space,1,0.41584359999978915,0.07182749999628868,,,,,,,,,,,,,1,001,2026-04-10_15h48.35.876,0back,,2025.1.1,59.551742126051096,2026-04-10 15h48.43.703432 +0200,
45,45,0,A,A,return,2.7673264000040945,None,space,1,0.60180269999546,0.06905459999688901,,,,,,0,0,0,0,0,1,1,2,0,45,45,36,107.76931619999232,,,,,,,,,,,,,,107.75329369999235,107.76931619999232,107.76931619999232,108.26914129999932,108.76907650000066,108.75255360000301,space,1,0.60180269999546,0.06905459999688901,,,,,,,,,,,,,1,001,2026-04-10_15h48.35.876,0back,,2025.1.1,59.551742126051096,2026-04-10 15h48.43.703432 +0200,
46,46,0,A,R,return,2.7673264000040945,None,None,0,,,,,,,,0,0,0,0,0,1,1,2,0,46,46,14,108.76907650000066,,,,,,,,,,,,,,108.75366659999418,108.76907650000066,108.76907650000066,109.26913929999864,109.76912289999018,109.7526177999971,None,0,,,,,,,,,,,,,,,1,001,2026-04-10_15h48.35.876,0back,,2025.1.1,59.551742126051096,2026-04-10 15h48.43.703432 +0200,
47,47,0,A,R,return,2.7673264000040945,None,None,0,,,,,,,,0,0,0,0,0,1,1,2,0,47,47,15,109.76912289999018,,,,,,,,,,,,,,109.75273710000329,109.76912289999018,109.76912289999018,110.27035929998965,110.76913489999424,110.75259499999811,None,0,,,,,,,,,,,,,,,1,001,2026-04-10_15h48.35.876,0back,,2025.1.1,59.551742126051096,2026-04-10 15h48.43.703432 +0200,
48,48,0,A,R,return,2.7673264000040945,None,None,0,,,,,,,,0,0,0,0,0,1,1,2,0,48,48,11,110.76913489999424,,,,,,,,,,,,,,110.75271669999347,110.76913489999424,110.76913489999424,111.26913729999796,111.76915399999416,111.75253420000081,None,0,,,,,,,,,,,,,,,1,001,2026-04-10_15h48.35.876,0back,,2025.1.1,59.551742126051096,2026-04-10 15h48.43.703432 +0200,
49,49,0,A,R,return,2.7673264000040945,None,None,0,,,,,,,,0,0,0,0,0,1,1,2,0,49,49,18,111.76915399999416,,,,,,,,,,,,,,111.75268999999389,111.76915399999416,111.76915399999416,112.26912929999526,,112.75288649999129,None,0,,,,,,,,,,,,,,,1,001,2026-04-10_15h48.35.876,0back,,2025.1.1,59.551742126051096,2026-04-10 15h48.43.703432 +0200,
1,1,0,A,,return,2.7673264000040945,None,,,,,,,,,,0,0,0,0,0,1,1,2,,,,,,,,,,,,,,,,,,,,,,,,,,,,,,,,,,,,,,,,,1,001,2026-04-10_15h48.35.876,0back,,2025.1.1,59.551742126051096,2026-04-10 15h48.43.703432 +0200,
0,0,0,M,I,return,1.503761600004509,None,None,0,,,,,,,,0,0,0,0,0,2,2,0,0,0,0,44,114.30247929999314,,,,,112.75873319999664,112.76912250000169,112.76912250000169,112.76912250000169,112.76912250000169,114.28598639999109,return,1.503761600004509,None,114.29380099999253,114.30247929999314,114.30247929999314,114.8025515999907,115.30250589999196,115.28580279999005,None,0,,,,,,,,,,,,,,,1,001,2026-04-10_15h48.35.876,0back,,2025.1.1,59.551742126051096,2026-04-10 15h48.43.703432 +0200,
1,1,0,M,R,return,1.503761600004509,None,None,0,,,,,,,,0,0,0,0,0,2,2,0,0,1,1,12,115.30250589999196,,,,,,,,,,,,,,115.28698029999214,115.30250589999196,115.30250589999196,115.80249970000295,116.3024582999933,116.28601840000192,None,0,,,,,,,,,,,,,,,1,001,2026-04-10_15h48.35.876,0back,,2025.1.1,59.551742126051096,2026-04-10 15h48.43.703432 +0200,
2,2,0,M,R,return,1.503761600004509,None,None,0,,,,,,,,0,0,0,0,0,2,2,0,0,2,2,17,116.3024582999933,,,,,,,,,,,,,,116.28621730000305,116.3024582999933,116.3024582999933,116.80240559999947,117.30244949999906,117.28609939999296,None,0,,,,,,,,,,,,,,,1,001,2026-04-10_15h48.35.876,0back,,2025.1.1,59.551742126051096,2026-04-10 15h48.43.703432 +0200,
3,3,0,M,N,return,1.503761600004509,None,None,0,,,,,,,,0,0,0,0,0,2,2,0,0,3,3,21,117.30244949999906,,,,,,,,,,,,,,117.28828690000228,117.30244949999906,117.30244949999906,117.80245669999567,118.30358629999682,118.28594509999675,None,0,,,,,,,,,,,,,,,1,001,2026-04-10_15h48.35.876,0back,,2025.1.1,59.551742126051096,2026-04-10 15h48.43.703432 +0200,
4,4,0,M,N,return,1.503761600004509,None,None,0,,,,,,,,0,0,0,0,0,2,2,0,0,4,4,24,118.30358629999682,,,,,,,,,,,,,,118.28607649999321,118.30358629999682,118.30358629999682,118.81915440000012,,119.30253109999467,None,0,,,,,,,,,,,,,,,1,001,2026-04-10_15h48.35.876,0back,,2025.1.1,59.551742126051096,2026-04-10 15h48.43.703432 +0200,
5,5,0,M,U,return,1.503761600004509,None,None,0,,,,,,,,0,0,0,0,0,2,2,0,0,5,5,43,119.31908469999325,,,,,,,,,,,,,,119.30381159999524,119.31908469999325,119.31908469999325,119.819167499998,,120.30276479999884,None,0,,,,,,,,,,,,,,,1,001,2026-04-10_15h48.35.876,0back,,2025.1.1,59.551742126051096,2026-04-10 15h48.43.703432 +0200,
6,6,0,M,D,return,1.503761600004509,None,None,0,,,,,,,,0,0,0,0,0,2,2,0,0,6,6,48,120.31908560000011,,,,,,,,,,,,,,120.30394669999077,120.31908560000011,120.31908560000011,120.81914559999132,,121.30249390000245,None,0,,,,,,,,,,,,,,,1,001,2026-04-10_15h48.35.876,0back,,2025.1.1,59.551742126051096,2026-04-10 15h48.43.703432 +0200,
7,7,0,M,N,return,1.503761600004509,None,None,0,,,,,,,,0,0,0,0,0,2,2,0,0,7,7,27,121.3191255999991,,,,,,,,,,,,,,121.30386600000202,121.3191255999991,121.3191255999991,121.81913979999081,,122.30252620000101,None,0,,,,,,,,,,,,,,,1,001,2026-04-10_15h48.35.876,0back,,2025.1.1,59.551742126051096,2026-04-10 15h48.43.703432 +0200,
8,8,0,M,A,return,1.503761600004509,None,None,0,,,,,,,,0,0,0,0,0,2,2,0,0,8,8,37,122.31917399998929,,,,,,,,,,,,,,122.30373509999481,122.31917399998929,122.31917399998929,122.8191788999975,,123.30265679999138,None,0,,,,,,,,,,,,,,,1,001,2026-04-10_15h48.35.876,0back,,2025.1.1,59.551742126051096,2026-04-10 15h48.43.703432 +0200,
9,9,0,M,A,return,1.503761600004509,None,None,0,,,,,,,,0,0,0,0,0,2,2,0,0,9,9,38,123.3191894999909,,,,,,,,,,,,,,123.30281870000181,123.3191894999909,123.3191894999909,123.81915179999487,,124.30251899998984,None,0,,,,,,,,,,,,,,,1,001,2026-04-10_15h48.35.876,0back,,2025.1.1,59.551742126051096,2026-04-10 15h48.43.703432 +0200,
10,10,0,M,Y,return,1.503761600004509,None,None,0,,,,,,,,0,0,0,0,0,2,2,0,0,10,10,42,124.31913950000308,,,,,,,,,,,,,,124.30421489999571,124.31913950000308,124.31913950000308,124.81918399999267,,125.30255589999433,None,0,,,,,,,,,,,,,,,1,001,2026-04-10_15h48.35.876,0back,,2025.1.1,59.551742126051096,2026-04-10 15h48.43.703432 +0200,
11,11,0,M,A,return,1.503761600004509,None,None,0,,,,,,,,0,0,0,0,0,2,2,0,0,11,11,36,125.31916060000367,,,,,,,,,,,,,,125.30386319999525,125.31916060000367,125.31916060000367,125.81909799999266,,126.30289890000131,None,0,,,,,,,,,,,,,,,1,001,2026-04-10_15h48.35.876,0back,,2025.1.1,59.551742126051096,2026-04-10 15h48.43.703432 +0200,
12,12,0,M,M,return,1.503761600004509,None,space,1,0.4014649000018835,0.07146779999311548,,,,,,0,0,0,0,0,2,2,0,0,12,12,3,126.3191810999997,,,,,,,,,,,,,,126.30483029999596,126.3191810999997,126.3191810999997,126.81908619999012,,127.28634109999985,space,1,0.4014649000018835,0.07146779999311548,,,,,,,,,,,,,1,001,2026-04-10_15h48.35.876,0back,,2025.1.1,59.551742126051096,2026-04-10 15h48.43.703432 +0200,
13,13,0,M,M,return,1.503761600004509,None,space,1,0.40187210000294726,0.08764490000612568,,,,,,0,0,0,0,0,2,2,0,0,13,13,6,127.3025423999934,,,,,,,,,,,,,,127.28719679999631,127.3025423999934,127.3025423999934,127.80254979999154,128.30245339999965,128.28579609999724,space,1,0.40187210000294726,0.08764490000612568,,,,,,,,,,,,,1,001,2026-04-10_15h48.35.876,0back,,2025.1.1,59.551742126051096,2026-04-10 15h48.43.703432 +0200,
14,14,0,M,M,return,1.503761600004509,None,space,1,0.36181329999817535,0.07993069999793079,,,,,,0,0,0,0,0,2,2,0,0,14,14,2,128.30245339999965,,,,,,,,,,,,,,128.28655419999268,128.30245339999965,128.30245339999965,128.802489099995,129.30281500000274,129.28570589999435,space,1,0.36181329999817535,0.07993069999793079,,,,,,,,,,,,,1,001,2026-04-10_15h48.35.876,0back,,2025.1.1,59.551742126051096,2026-04-10 15h48.43.703432 +0200,
15,15,0,M,R,return,1.503761600004509,None,None,0,,,,,,,,0,0,0,0,0,2,2,0,0,15,15,10,129.30281500000274,,,,,,,,,,,,,,129.2870833999914,129.30281500000274,129.30281500000274,129.80249309999635,130.30247759999475,130.28578740000376,None,0,,,,,,,,,,,,,,,1,001,2026-04-10_15h48.35.876,0back,,2025.1.1,59.551742126051096,2026-04-10 15h48.43.703432 +0200,
16,16,0,M,R,return,1.503761600004509,None,None,0,,,,,,,,0,0,0,0,0,2,2,0,0,16,16,9,130.30247759999475,,,,,,,,,,,,,,130.28591039999446,130.30247759999475,130.30247759999475,130.8024599999917,131.30259829999704,131.28595819999464,None,0,,,,,,,,,,,,,,,1,001,2026-04-10_15h48.35.876,0back,,2025.1.1,59.551742126051096,2026-04-10 15h48.43.703432 +0200,
17,17,0,M,N,return,1.503761600004509,None,None,0,,,,,,,,0,0,0,0,0,2,2,0,0,17,17,20,131.30259829999704,,,,,,,,,,,,,,131.28724759999022,131.30259829999704,131.30259829999704,131.80239589999837,132.30243229999905,132.285761799998,None,0,,,,,,,,,,,,,,,1,001,2026-04-10_15h48.35.876,0back,,2025.1.1,59.551742126051096,2026-04-10 15h48.43.703432 +0200,
18,18,0,M,N,return,1.503761600004509,None,None,0,,,,,,,,0,0,0,0,0,2,2,0,0,18,18,22,132.30243229999905,,,,,,,,,,,,,,132.28589199999988,132.30243229999905,132.30243229999905,132.8024776999955,133.30253809998976,133.28593820000242,None,0,,,,,,,,,,,,,,,1,001,2026-04-10_15h48.35.876,0back,,2025.1.1,59.551742126051096,2026-04-10 15h48.43.703432 +0200,
19,19,0,M,M,return,1.503761600004509,None,space,1,0.48176629999943543,0.10378419999324251,,,,,,0,0,0,0,0,2,2,0,0,19,19,0,133.30253809998976,,,,,,,,,,,,,,133.2881219999981,133.30253809998976,133.30253809998976,133.80249770000228,134.3024555000011,134.2857517999946,space,1,0.48176629999943543,0.10378419999324251,,,,,,,,,,,,,1,001,2026-04-10_15h48.35.876,0back,,2025.1.1,59.551742126051096,2026-04-10 15h48.43.703432 +0200,
20,20,0,M,N,return,1.503761600004509,None,None,0,,,,,,,,0,0,0,0,0,2,2,0,0,20,20,23,134.3024555000011,,,,,,,,,,,,,,134.28711209999165,134.3024555000011,134.3024555000011,134.80240380000032,135.30247480000253,135.2857606000034,None,0,,,,,,,,,,,,,,,1,001,2026-04-10_15h48.35.876,0back,,2025.1.1,59.551742126051096,2026-04-10 15h48.43.703432 +0200,
21,21,0,M,P,return,1.503761600004509,None,None,0,,,,,,,,0,0,0,0,0,2,2,0,0,21,21,46,135.30247480000253,,,,,,,,,,,,,,135.28690490000008,135.30247480000253,135.30247480000253,135.80242500000168,136.30276739998953,136.2857753999997,None,0,,,,,,,,,,,,,,,1,001,2026-04-10_15h48.35.876,0back,,2025.1.1,59.551742126051096,2026-04-10 15h48.43.703432 +0200,
22,22,0,M,M,return,1.503761600004509,None,space,1,0.4013889000052586,0.08006350000505336,,,,,,0,0,0,0,0,2,2,0,0,22,22,5,136.30276739998953,,,,,,,,,,,,,,136.28764899999078,136.30276739998953,136.30276739998953,136.80250789999263,137.30256369999552,137.285770699993,space,1,0.4013889000052586,0.08006350000505336,,,,,,,,,,,,,1,001,2026-04-10_15h48.35.876,0back,,2025.1.1,59.551742126051096,2026-04-10 15h48.43.703432 +0200,
23,23,0,M,O,return,1.503761600004509,None,None,0,,,,,,,,0,0,0,0,0,2,2,0,0,23,23,45,137.30256369999552,,,,,,,,,,,,,,137.28691579999577,137.30256369999552,137.30256369999552,137.80249760000152,138.3024379999988,138.28574169999047,None,0,,,,,,,,,,,,,,,1,001,2026-04-10_15h48.35.876,0back,,2025.1.1,59.551742126051096,2026-04-10 15h48.43.703432 +0200,
24,24,0,M,M,return,1.503761600004509,None,space,1,0.4186236999958055,0.07118009999976493,,,,,,0,0,0,0,0,2,2,0,0,24,24,7,138.3024379999988,,,,,,,,,,,,,,138.28757980000228,138.3024379999988,138.3024379999988,138.8024762999994,,139.28643259999808,space,1,0.4186236999958055,0.07118009999976493,,,,,,,,,,,,,1,001,2026-04-10_15h48.35.876,0back,,2025.1.1,59.551742126051096,2026-04-10 15h48.43.703432 +0200,
25,25,0,M,Z,return,1.503761600004509,None,None,0,,,,,,,,0,0,0,0,0,2,2,0,0,25,25,39,139.30248099999153,,,,,,,,,,,,,,139.28762599999027,139.30248099999153,139.30248099999153,139.8024391999934,140.30247419999796,140.28595320000022,None,0,,,,,,,,,,,,,,,1,001,2026-04-10_15h48.35.876,0back,,2025.1.1,59.551742126051096,2026-04-10 15h48.43.703432 +0200,
26,26,0,M,N,return,1.503761600004509,None,None,0,,,,,,,,0,0,0,0,0,2,2,0,0,26,26,28,140.30247419999796,,,,,,,,,,,,,,140.28764769999543,140.30247419999796,140.30247419999796,140.8024829999922,141.30256679999002,141.28576089999115,None,0,,,,,,,,,,,,,,,1,001,2026-04-10_15h48.35.876,0back,,2025.1.1,59.551742126051096,2026-04-10 15h48.43.703432 +0200,
27,27,0,M,C,return,1.503761600004509,None,None,0,,,,,,,,0,0,0,0,0,2,2,0,0,27,27,49,141.30256679999002,,,,,,,,,,,,,,141.28730650000216,141.30256679999002,141.30256679999002,141.80245730000024,142.30250569999043,142.28591920000326,None,0,,,,,,,,,,,,,,,1,001,2026-04-10_15h48.35.876,0back,,2025.1.1,59.551742126051096,2026-04-10 15h48.43.703432 +0200,
28,28,0,M,M,return,1.503761600004509,None,space,1,0.43354379999800585,0.07211350000579841,,,,,,0,0,0,0,0,2,2,0,0,28,28,1,142.30250569999043,,,,,,,,,,,,,,142.28778259998944,142.30250569999043,142.30250569999043,142.80249839999306,143.30241920000117,143.28580460000376,space,1,0.43354379999800585,0.07211350000579841,,,,,,,,,,,,,1,001,2026-04-10_15h48.35.876,0back,,2025.1.1,59.551742126051096,2026-04-10 15h48.43.703432 +0200,
29,29,0,M,M,return,1.503761600004509,None,space,1,0.44200769999588374,0.0957425999949919,,,,,,0,0,0,0,0,2,2,0,0,29,29,8,143.30241920000117,,,,,,,,,,,,,,143.28655569998955,143.30241920000117,143.30241920000117,143.80248489999212,144.30250340000202,144.2857812000002,space,1,0.44200769999588374,0.0957425999949919,,,,,,,,,,,,,1,001,2026-04-10_15h48.35.876,0back,,2025.1.1,59.551742126051096,2026-04-10 15h48.43.703432 +0200,
30,30,0,M,Q,return,1.503761600004509,None,None,0,,,,,,,,0,0,0,0,0,2,2,0,0,30,30,47,144.30250340000202,,,,,,,,,,,,,,144.2869675999973,144.30250340000202,144.30250340000202,144.80251470000076,145.30250720000186,145.28588129999116,None,0,,,,,,,,,,,,,,,1,001,2026-04-10_15h48.35.876,0back,,2025.1.1,59.551742126051096,2026-04-10 15h48.43.703432 +0200,
31,31,0,M,R,return,1.503761600004509,None,None,0,,,,,,,,0,0,0,0,0,2,2,0,0,31,31,14,145.30250720000186,,,,,,,,,,,,,,145.2870791000023,145.30250720000186,145.30250720000186,145.80245259999356,,146.28755120000278,None,0,,,,,,,,,,,,,,,1,001,2026-04-10_15h48.35.876,0back,,2025.1.1,59.551742126051096,2026-04-10 15h48.43.703432 +0200,
32,32,0,M,R,return,1.503761600004509,None,None,0,,,,,,,,0,0,0,0,0,2,2,0,0,32,32,13,146.30247929999314,,,,,,,,,,,,,,146.28776720000315,146.30247929999314,146.30247929999314,146.80255419999594,147.30258249999315,147.28579809999792,None,0,,,,,,,,,,,,,,,1,001,2026-04-10_15h48.35.876,0back,,2025.1.1,59.551742126051096,2026-04-10 15h48.43.703432 +0200,
33,33,0,M,A,return,1.503761600004509,None,None,0,,,,,,,,0,0,0,0,0,2,2,0,0,33,33,31,147.30258249999315,,,,,,,,,,,,,,147.28704889999062,147.30258249999315,147.30258249999315,147.8026017999946,148.30252499999187,148.2859027999948,None,0,,,,,,,,,,,,,,,1,001,2026-04-10_15h48.35.876,0back,,2025.1.1,59.551742126051096,2026-04-10 15h48.43.703432 +0200,
34,34,0,M,E,return,1.503761600004509,None,None,0,,,,,,,,0,0,0,0,0,2,2,0,0,34,34,40,148.30252499999187,,,,,,,,,,,,,,148.2872178999969,148.30252499999187,148.30252499999187,148.8025934000034,149.30248279999068,149.28577519999817,None,0,,,,,,,,,,,,,,,1,001,2026-04-10_15h48.35.876,0back,,2025.1.1,59.551742126051096,2026-04-10 15h48.43.703432 +0200,
35,35,0,M,R,return,1.503761600004509,None,None,0,,,,,,,,0,0,0,0,0,2,2,0,0,35,35,15,149.30248279999068,,,,,,,,,,,,,,149.28687660000287,149.30248279999068,149.30248279999068,149.80245560000185,150.302506299995,150.28579629999876,None,0,,,,,,,,,,,,,,,1,001,2026-04-10_15h48.35.876,0back,,2025.1.1,59.551742126051096,2026-04-10 15h48.43.703432 +0200,
36,36,0,M,A,return,1.503761600004509,None,None,0,,,,,,,,0,0,0,0,0,2,2,0,0,36,36,34,150.302506299995,,,,,,,,,,,,,,150.28817020000133,150.302506299995,150.302506299995,150.8026463999995,151.30283729999792,151.28592979999667,None,0,,,,,,,,,,,,,,,1,001,2026-04-10_15h48.35.876,0back,,2025.1.1,59.551742126051096,2026-04-10 15h48.43.703432 +0200,
37,37,0,M,M,return,1.503761600004509,None,space,1,0.41974490000575315,0.0857932999933837,,,,,,0,0,0,0,0,2,2,0,0,37,37,4,151.30283729999792,,,,,,,,,,,,,,151.28821549999702,151.30283729999792,151.30283729999792,151.80250249999517,152.30247209999652,152.28582720000122,space,1,0.41974490000575315,0.0857932999933837,,,,,,,,,,,,,1,001,2026-04-10_15h48.35.876,0back,,2025.1.1,59.551742126051096,2026-04-10 15h48.43.703432 +0200,
38,38,0,M,N,return,1.503761600004509,None,None,0,,,,,,,,0,0,0,0,0,2,2,0,0,38,38,26,152.30247209999652,,,,,,,,,,,,,,152.28700090000348,152.30247209999652,152.30247209999652,152.8024785000016,153.30249989998993,153.28576279999106,None,0,,,,,,,,,,,,,,,1,001,2026-04-10_15h48.35.876,0back,,2025.1.1,59.551742126051096,2026-04-10 15h48.43.703432 +0200,
39,39,0,M,A,return,1.503761600004509,None,None,0,,,,,,,,0,0,0,0,0,2,2,0,0,39,39,29,153.30249989998993,,,,,,,,,,,,,,153.28698629999417,153.30249989998993,153.30249989998993,153.8025418999896,154.30263109999942,154.2857670999947,None,0,,,,,,,,,,,,,,,1,001,2026-04-10_15h48.35.876,0back,,2025.1.1,59.551742126051096,2026-04-10 15h48.43.703432 +0200,
40,40,0,M,R,return,1.503761600004509,None,None,0,,,,,,,,0,0,0,0,0,2,2,0,0,40,40,16,154.30263109999942,,,,,,,,,,,,,,154.286932899995,154.30263109999942,154.30263109999942,154.8025040999928,155.3025353999983,155.28570700000273,None,0,,,,,,,,,,,,,,,1,001,2026-04-10_15h48.35.876,0back,,2025.1.1,59.551742126051096,2026-04-10 15h48.43.703432 +0200,
41,41,0,M,N,return,1.503761600004509,None,None,0,,,,,,,,0,0,0,0,0,2,2,0,0,41,41,25,155.3025353999983,,,,,,,,,,,,,,155.286864099995,155.3025353999983,155.3025353999983,155.80248919999576,156.30252329999348,156.28578969999216,None,0,,,,,,,,,,,,,,,1,001,2026-04-10_15h48.35.876,0back,,2025.1.1,59.551742126051096,2026-04-10 15h48.43.703432 +0200,
42,42,0,M,N,return,1.503761600004509,None,None,0,,,,,,,,0,0,0,0,0,2,2,0,0,42,42,19,156.30252329999348,,,,,,,,,,,,,,156.28590609999083,156.30252329999348,156.30252329999348,156.8025697999983,157.30251270000008,157.2856926999957,None,0,,,,,,,,,,,,,,,1,001,2026-04-10_15h48.35.876,0back,,2025.1.1,59.551742126051096,2026-04-10 15h48.43.703432 +0200,
43,43,0,M,A,return,1.503761600004509,None,None,0,,,,,,,,0,0,0,0,0,2,2,0,0,43,43,33,157.30251270000008,,,,,,,,,,,,,,157.2869187000033,157.30251270000008,157.30251270000008,157.80248399999982,158.3025587000011,158.285756199999,None,0,,,,,,,,,,,,,,,1,001,2026-04-10_15h48.35.876,0back,,2025.1.1,59.551742126051096,2026-04-10 15h48.43.703432 +0200,
44,44,0,M,A,return,1.503761600004509,None,None,0,,,,,,,,0,0,0,0,0,2,2,0,0,44,44,32,158.3025587000011,,,,,,,,,,,,,,158.28588149999268,158.3025587000011,158.3025587000011,158.80247470000177,159.30245239999203,159.28612079999584,None,0,,,,,,,,,,,,,,,1,001,2026-04-10_15h48.35.876,0back,,2025.1.1,59.551742126051096,2026-04-10 15h48.43.703432 +0200,
45,45,0,M,A,return,1.503761600004509,None,None,0,,,,,,,,0,0,0,0,0,2,2,0,0,45,45,35,159.30245239999203,,,,,,,,,,,,,,159.28651399999217,159.30245239999203,159.30245239999203,159.80249370000092,160.30256199999712,160.28582449999521,None,0,,,,,,,,,,,,,,,1,001,2026-04-10_15h48.35.876,0back,,2025.1.1,59.551742126051096,2026-04-10 15h48.43.703432 +0200,
46,46,0,M,A,return,1.503761600004509,None,None,0,,,,,,,,0,0,0,0,0,2,2,0,0,46,46,30,160.30256199999712,,,,,,,,,,,,,,160.28595730000234,160.30256199999712,160.30256199999712,160.80247110000346,161.30247300000337,161.28602020000108,None,0,,,,,,,,,,,,,,,1,001,2026-04-10_15h48.35.876,0back,,2025.1.1,59.551742126051096,2026-04-10 15h48.43.703432 +0200,
47,47,0,M,T,return,1.503761600004509,None,None,0,,,,,,,,0,0,0,0,0,2,2,0,0,47,47,41,161.30247300000337,,,,,,,,,,,,,,161.28780559998995,161.30247300000337,161.30247300000337,161.80244610000227,162.30254479999712,162.285752900003,None,0,,,,,,,,,,,,,,,1,001,2026-04-10_15h48.35.876,0back,,2025.1.1,59.551742126051096,2026-04-10 15h48.43.703432 +0200,
48,48,0,M,R,return,1.503761600004509,None,None,0,,,,,,,,0,0,0,0,0,2,2,0,0,48,48,18,162.30254479999712,,,,,,,,,,,,,,162.28692689999298,162.30254479999712,162.30254479999712,162.80254449999484,163.3024599999917,163.28585099999327,None,0,,,,,,,,,,,,,,,1,001,2026-04-10_15h48.35.876,0back,,2025.1.1,59.551742126051096,2026-04-10 15h48.43.703432 +0200,
49,49,0,M,R,return,1.503761600004509,None,None,0,,,,,,,,0,0,0,0,0,2,2,0,0,49,49,11,163.3024599999917,,,,,,,,,,,,,,163.28604589999304,163.3024599999917,163.3024599999917,163.80244959999982,164.30253200000152,164.28613189999305,None,0,,,,,,,,,,,,,,,1,001,2026-04-10_15h48.35.876,0back,,2025.1.1,59.551742126051096,2026-04-10 15h48.43.703432 +0200,
2,2,0,M,,return,1.503761600004509,None,,,,,,,,,,0,0,0,0,0,2,2,0,,,,,,,,,,,,,,,,,,,,,,,,,,,,,,,,,,,,,,,,,1,001,2026-04-10_15h48.35.876,0back,,2025.1.1,59.551742126051096,2026-04-10 15h48.43.703432 +0200,
0,0,0,N,R,return,2.0178749000042444,None,None,0,,,,,,,,0,0,0,0,0,3,3,3,0,0,0,17,166.35248089999368,,,,,164.29247400000168,164.30253200000152,164.30253200000152,164.30253200000152,164.30253200000152,166.3361661999952,return,2.0178749000042444,None,166.34048919999623,166.35248089999368,166.35248089999368,166.85248039998987,167.3546476999909,167.33584220000193,None,0,,,,,,,,,,,,,,,1,001,2026-04-10_15h48.35.876,0back,,2025.1.1,59.551742126051096,2026-04-10 15h48.43.703432 +0200,
1,1,0,N,C,return,2.0178749000042444,None,None,0,,,,,,,,0,0,0,0,0,3,3,3,0,1,1,49,167.3546476999909,,,,,,,,,,,,,,167.3370133999997,167.3546476999909,167.3546476999909,167.86919549999584,,168.3527305000025,None,0,,,,,,,,,,,,,,,1,001,2026-04-10_15h48.35.876,0back,,2025.1.1,59.551742126051096,2026-04-10 15h48.43.703432 +0200,
2,2,0,N,A,return,2.0178749000042444,None,None,0,,,,,,,,0,0,0,0,0,3,3,3,0,2,2,30,168.36919399999897,,,,,,,,,,,,,,168.3539996999898,168.36919399999897,168.36919399999897,168.8690765999927,,169.35266629999387,None,0,,,,,,,,,,,,,,,1,001,2026-04-10_15h48.35.876,0back,,2025.1.1,59.551742126051096,2026-04-10 15h48.43.703432 +0200,
3,3,0,N,P,return,2.0178749000042444,None,None,0,,,,,,,,0,0,0,0,0,3,3,3,0,3,3,46,169.36922449999838,,,,,,,,,,,,,,169.35385659999156,169.36922449999838,169.36922449999838,169.86921579999034,,170.3526009999914,None,0,,,,,,,,,,,,,,,1,001,2026-04-10_15h48.35.876,0back,,2025.1.1,59.551742126051096,2026-04-10 15h48.43.703432 +0200,
4,4,0,N,R,return,2.0178749000042444,None,None,0,,,,,,,,0,0,0,0,0,3,3,3,0,4,4,11,170.3692824000027,,,,,,,,,,,,,,170.35405199999514,170.3692824000027,170.3692824000027,170.8692305000004,,171.35259239999868,None,0,,,,,,,,,,,,,,,1,001,2026-04-10_15h48.35.876,0back,,2025.1.1,59.551742126051096,2026-04-10 15h48.43.703432 +0200,
5,5,0,N,N,return,2.0178749000042444,None,space,1,0.3673634000006132,0.07156680000480264,,,,,,0,0,0,0,0,3,3,3,0,5,5,20,171.36932620000152,,,,,,,,,,,,,,171.35445149999578,171.36932620000152,171.36932620000152,171.86925209999026,,172.35259579999547,space,1,0.3673634000006132,0.07156680000480264,,,,,,,,,,,,,1,001,2026-04-10_15h48.35.876,0back,,2025.1.1,59.551742126051096,2026-04-10 15h48.43.703432 +0200,
6,6,0,N,A,return,2.0178749000042444,None,None,0,,,,,,,,0,0,0,0,0,3,3,3,0,6,6,34,172.369182800001,,,,,,,,,,,,,,172.35375219999696,172.369182800001,172.369182800001,172.86918239999795,,173.3525737000018,None,0,,,,,,,,,,,,,,,1,001,2026-04-10_15h48.35.876,0back,,2025.1.1,59.551742126051096,2026-04-10 15h48.43.703432 +0200,
7,7,0,N,M,return,2.0178749000042444,None,None,0,,,,,,,,0,0,0,0,0,3,3,3,0,7,7,1,173.36917019999237,,,,,,,,,,,,,,173.35378299999866,173.36917019999237,173.36917019999237,173.86915279999084,,174.35258920000342,None,0,,,,,,,,,,,,,,,1,001,2026-04-10_15h48.35.876,0back,,2025.1.1,59.551742126051096,2026-04-10 15h48.43.703432 +0200,
8,8,0,N,A,return,2.0178749000042444,None,None,0,,,,,,,,0,0,0,0,0,3,3,3,0,8,8,33,174.36916909999854,,,,,,,,,,,,,,174.35376030000043,174.36916909999854,174.36916909999854,174.86916249999194,,175.3526065999904,None,0,,,,,,,,,,,,,,,1,001,2026-04-10_15h48.35.876,0back,,2025.1.1,59.551742126051096,2026-04-10 15h48.43.703432 +0200,
9,9,0,N,M,return,2.0178749000042444,None,None,0,,,,,,,,0,0,0,0,0,3,3,3,0,9,9,8,175.3691633999988,,,,,,,,,,,,,,175.35378350000246,175.3691633999988,175.3691633999988,175.86917439999525,,176.35255399999733,None,0,,,,,,,,,,,,,,,1,001,2026-04-10_15h48.35.876,0back,,2025.1.1,59.551742126051096,2026-04-10 15h48.43.703432 +0200,
10,10,0,N,M,return,2.0178749000042444,None,None,0,,,,,,,,0,0,0,0,0,3,3,3,0,10,10,2,176.3692302999989,,,,,,,,,,,,,,176.3526836999954,176.3692302999989,176.3692302999989,176.86922019999474,,177.35269099999277,None,0,,,,,,,,,,,,,,,1,001,2026-04-10_15h48.35.876,0back,,2025.1.1,59.551742126051096,2026-04-10 15h48.43.703432 +0200,
11,11,0,N,N,return,2.0178749000042444,None,space,1,0.4074403999984497,0.08077729999786243,,,,,,0,0,0,0,0,3,3,3,0,11,11,26,177.36919070000295,,,,,,,,,,,,,,177.35622709999734,177.36919070000295,177.36919070000295,177.86915349999617,,178.35261380000156,space,1,0.4074403999984497,0.08077729999786243,,,,,,,,,,,,,1,001,2026-04-10_15h48.35.876,0back,,2025.1.1,59.551742126051096,2026-04-10 15h48.43.703432 +0200,
12,12,0,N,N,return,2.0178749000042444,None,space,1,0.45643469999777153,0.07088610000209883,,,,,,0,0,0,0,0,3,3,3,0,12,12,24,178.36920059999102,,,,,,,,,,,,,,178.3533757999976,178.36920059999102,178.36920059999102,178.86921209999127,,179.35270570000284,space,1,0.45643469999777153,0.07088610000209883,,,,,,,,,,,,,1,001,2026-04-10_15h48.35.876,0back,,2025.1.1,59.551742126051096,2026-04-10 15h48.43.703432 +0200,
13,13,0,N,R,return,2.0178749000042444,None,None,0,,,,,,,,0,0,0,0,0,3,3,3,0,13,13,9,179.3692355999956,,,,,,,,,,,,,,179.35535849998996,179.3692355999956,179.3692355999956,179.86906460000318,,180.35245409999334,None,0,,,,,,,,,,,,,,,1,001,2026-04-10_15h48.35.876,0back,,2025.1.1,59.551742126051096,2026-04-10 15h48.43.703432 +0200,
14,14,0,N,T,return,2.0178749000042444,None,None,0,,,,,,,,0,0,0,0,0,3,3,3,0,14,14,41,180.36916380000184,,,,,,,,,,,,,,180.35384100000374,180.36916380000184,180.36916380000184,180.86918599999626,,181.35251199999766,None,0,,,,,,,,,,,,,,,1,001,2026-04-10_15h48.35.876,0back,,2025.1.1,59.551742126051096,2026-04-10 15h48.43.703432 +0200,
15,15,0,N,A,return,2.0178749000042444,None,None,0,,,,,,,,0,0,0,0,0,3,3,3,0,15,15,31,181.3691844999994,,,,,,,,,,,,,,181.3537706999923,181.3691844999994,181.3691844999994,181.86915499999304,,182.35249710000062,None,0,,,,,,,,,,,,,,,1,001,2026-04-10_15h48.35.876,0back,,2025.1.1,59.551742126051096,2026-04-10 15h48.43.703432 +0200,
16,16,0,N,M,return,2.0178749000042444,None,None,0,,,,,,,,0,0,0,0,0,3,3,3,0,16,16,0,182.3691342999955,,,,,,,,,,,,,,182.3538400999969,182.3691342999955,182.3691342999955,182.869148400001,,183.352564300003,None,0,,,,,,,,,,,,,,,1,001,2026-04-10_15h48.35.876,0back,,2025.1.1,59.551742126051096,2026-04-10 15h48.43.703432 +0200,
17,17,0,N,N,return,2.0178749000042444,None,space,1,0.40636629999789875,0.07230800000252202,,,,,,0,0,0,0,0,3,3,3,0,17,17,27,183.3701476999995,,,,,,,,,,,,,,183.35434740000346,183.3701476999995,183.3701476999995,183.88571459999366,,184.3525757000025,space,1,0.40636629999789875,0.07230800000252202,,,,,,,,,,,,,1,001,2026-04-10_15h48.35.876,0back,,2025.1.1,59.551742126051096,2026-04-10 15h48.43.703432 +0200,
18,18,0,N,U,return,2.0178749000042444,None,None,0,,,,,,,,0,0,0,0,0,3,3,3,0,18,18,43,184.36926150000363,,,,,,,,,,,,,,184.3537851000001,184.36926150000363,184.36926150000363,184.86919060000218,,185.35255250000046,None,0,,,,,,,,,,,,,,,1,001,2026-04-10_15h48.35.876,0back,,2025.1.1,59.551742126051096,2026-04-10 15h48.43.703432 +0200,
19,19,0,N,M,return,2.0178749000042444,None,None,0,,,,,,,,0,0,0,0,0,3,3,3,0,19,19,6,185.36923959999694,,,,,,,,,,,,,,185.35384429999976,185.36923959999694,185.36923959999694,185.86913249999634,,186.35256970000046,None,0,,,,,,,,,,,,,,,1,001,2026-04-10_15h48.35.876,0back,,2025.1.1,59.551742126051096,2026-04-10 15h48.43.703432 +0200,
20,20,0,N,A,return,2.0178749000042444,None,None,0,,,,,,,,0,0,0,0,0,3,3,3,0,20,20,32,186.36912709999888,,,,,,,,,,,,,,186.35371709999163,186.36912709999888,186.36912709999888,186.8691850999894,,187.3526312999893,None,0,,,,,,,,,,,,,,,1,001,2026-04-10_15h48.35.876,0back,,2025.1.1,59.551742126051096,2026-04-10 15h48.43.703432 +0200,
21,21,0,N,M,return,2.0178749000042444,None,None,0,,,,,,,,0,0,0,0,0,3,3,3,0,21,21,3,187.3692286000005,,,,,,,,,,,,,,187.35389379999833,187.3692286000005,187.3692286000005,187.8691359999939,,188.35346889999346,None,0,,,,,,,,,,,,,,,1,001,2026-04-10_15h48.35.876,0back,,2025.1.1,59.551742126051096,2026-04-10 15h48.43.703432 +0200,
22,22,0,N,N,return,2.0178749000042444,None,space,1,0.40740359999472275,0.07245849999890197,,,,,,0,0,0,0,0,3,3,3,0,22,22,19,188.3691611999966,,,,,,,,,,,,,,188.35615079999843,188.3691611999966,188.3691611999966,188.86919430000125,,189.35268969999743,space,1,0.40740359999472275,0.07245849999890197,,,,,,,,,,,,,1,001,2026-04-10_15h48.35.876,0back,,2025.1.1,59.551742126051096,2026-04-10 15h48.43.703432 +0200,
23,23,0,N,O,return,2.0178749000042444,None,None,0,,,,,,,,0,0,0,0,0,3,3,3,0,23,23,45,189.36917540000286,,,,,,,,,,,,,,189.35426520000328,189.36917540000286,189.36917540000286,189.8697172999964,,190.3525840999937,None,0,,,,,,,,,,,,,,,1,001,2026-04-10_15h48.35.876,0back,,2025.1.1,59.551742126051096,2026-04-10 15h48.43.703432 +0200,
24,24,0,N,D,return,2.0178749000042444,None,None,0,,,,,,,,0,0,0,0,0,3,3,3,0,24,24,48,190.3692127999966,,,,,,,,,,,,,,190.3538794999913,190.3692127999966,190.3692127999966,190.86919040000066,,191.35259199999564,None,0,,,,,,,,,,,,,,,1,001,2026-04-10_15h48.35.876,0back,,2025.1.1,59.551742126051096,2026-04-10 15h48.43.703432 +0200,
25,25,0,N,A,return,2.0178749000042444,None,None,0,,,,,,,,0,0,0,0,0,3,3,3,0,25,25,37,191.36923650000244,,,,,,,,,,,,,,191.35380189999705,191.36923650000244,191.36923650000244,191.86920829999144,,192.3525898999942,None,0,,,,,,,,,,,,,,,1,001,2026-04-10_15h48.35.876,0back,,2025.1.1,59.551742126051096,2026-04-10 15h48.43.703432 +0200,
26,26,0,N,Q,return,2.0178749000042444,None,None,0,,,,,,,,0,0,0,0,0,3,3,3,0,26,26,47,192.36922629999754,,,,,,,,,,,,,,192.3538816999935,192.36922629999754,192.36922629999754,192.8692757999961,,193.35261129999708,None,0,,,,,,,,,,,,,,,1,001,2026-04-10_15h48.35.876,0back,,2025.1.1,59.551742126051096,2026-04-10 15h48.43.703432 +0200,
27,27,0,N,E,return,2.0178749000042444,None,None,0,,,,,,,,0,0,0,0,0,3,3,3,0,27,27,40,193.36919260000286,,,,,,,,,,,,,,193.35390269999334,193.36919260000286,193.36919260000286,193.86918189999415,,194.33648440000252,None,0,,,,,,,,,,,,,,,1,001,2026-04-10_15h48.35.876,0back,,2025.1.1,59.551742126051096,2026-04-10 15h48.43.703432 +0200,
28,28,0,N,I,return,2.0178749000042444,None,None,0,,,,,,,,0,0,0,0,0,3,3,3,0,28,28,44,194.35248529999808,,,,,,,,,,,,,,194.3379178000032,194.35248529999808,194.35248529999808,194.85337470000377,195.35258140000224,195.33581039999262,None,0,,,,,,,,,,,,,,,1,001,2026-04-10_15h48.35.876,0back,,2025.1.1,59.551742126051096,2026-04-10 15h48.43.703432 +0200,
29,29,0,N,R,return,2.0178749000042444,None,None,0,,,,,,,,0,0,0,0,0,3,3,3,0,29,29,13,195.35258140000224,,,,,,,,,,,,,,195.33699939999497,195.35258140000224,195.35258140000224,195.85249209999165,196.3525582000002,196.33614549999766,None,0,,,,,,,,,,,,,,,1,001,2026-04-10_15h48.35.876,0back,,2025.1.1,59.551742126051096,2026-04-10 15h48.43.703432 +0200,
30,30,0,N,A,return,2.0178749000042444,None,None,0,,,,,,,,0,0,0,0,0,3,3,3,0,30,30,29,196.3525582000002,,,,,,,,,,,,,,196.33748180000111,196.3525582000002,196.3525582000002,196.85254290000012,197.35252580000088,197.33606190000137,None,0,,,,,,,,,,,,,,,1,001,2026-04-10_15h48.35.876,0back,,2025.1.1,59.551742126051096,2026-04-10 15h48.43.703432 +0200,
31,31,0,N,R,return,2.0178749000042444,None,None,0,,,,,,,,0,0,0,0,0,3,3,3,0,31,31,12,197.35252580000088,,,,,,,,,,,,,,197.3372734000004,197.35252580000088,197.35252580000088,197.85256919999665,198.35251349999453,198.33598649999476,None,0,,,,,,,,,,,,,,,1,001,2026-04-10_15h48.35.876,0back,,2025.1.1,59.551742126051096,2026-04-10 15h48.43.703432 +0200,
32,32,0,N,R,return,2.0178749000042444,None,None,0,,,,,,,,0,0,0,0,0,3,3,3,0,32,32,15,198.35251349999453,,,,,,,,,,,,,,198.33611879999808,198.35251349999453,198.35251349999453,198.85251470000367,199.35250729999098,199.33588529999543,None,0,,,,,,,,,,,,,,,1,001,2026-04-10_15h48.35.876,0back,,2025.1.1,59.551742126051096,2026-04-10 15h48.43.703432 +0200,
33,33,0,N,N,return,2.0178749000042444,None,space,1,0.4564187999931164,0.07151010000961833,,,,,,0,0,0,0,0,3,3,3,0,33,33,23,199.35250729999098,,,,,,,,,,,,,,199.33809920000203,199.35250729999098,199.35250729999098,199.8524621999968,200.352553299992,200.3359872000001,space,1,0.4564187999931164,0.07151010000961833,,,,,,,,,,,,,1,001,2026-04-10_15h48.35.876,0back,,2025.1.1,59.551742126051096,2026-04-10 15h48.43.703432 +0200,
34,34,0,N,N,return,2.0178749000042444,None,space,1,0.43232770000759047,0.06354249999276362,,,,,,0,0,0,0,0,3,3,3,0,34,34,28,200.352553299992,,,,,,,,,,,,,,200.33680649999587,200.352553299992,200.352553299992,200.85258669999894,201.35265909999725,201.33602259999316,space,1,0.43232770000759047,0.06354249999276362,,,,,,,,,,,,,1,001,2026-04-10_15h48.35.876,0back,,2025.1.1,59.551742126051096,2026-04-10 15h48.43.703432 +0200,
35,35,0,N,R,return,2.0178749000042444,None,None,0,,,,,,,,0,0,0,0,0,3,3,3,0,35,35,18,201.35265909999725,,,,,,,,,,,,,,201.3374085999967,201.35265909999725,201.35265909999725,201.8526017999975,202.35255840000173,202.33593980000296,None,0,,,,,,,,,,,,,,,1,001,2026-04-10_15h48.35.876,0back,,2025.1.1,59.551742126051096,2026-04-10 15h48.43.703432 +0200,
36,36,0,N,A,return,2.0178749000042444,None,None,0,,,,,,,,0,0,0,0,0,3,3,3,0,36,36,36,202.35255840000173,,,,,,,,,,,,,,202.33722459999262,202.35255840000173,202.35255840000173,202.85266059999412,203.3528956999944,203.33599510000204,None,0,,,,,,,,,,,,,,,1,001,2026-04-10_15h48.35.876,0back,,2025.1.1,59.551742126051096,2026-04-10 15h48.43.703432 +0200,
37,37,0,N,A,return,2.0178749000042444,None,None,0,,,,,,,,0,0,0,0,0,3,3,3,0,37,37,38,203.3528956999944,,,,,,,,,,,,,,203.3361128999968,203.3528956999944,203.3528956999944,203.85250159999123,204.35253750000265,204.33589539999957,None,0,,,,,,,,,,,,,,,1,001,2026-04-10_15h48.35.876,0back,,2025.1.1,59.551742126051096,2026-04-10 15h48.43.703432 +0200,
38,38,0,N,N,return,2.0178749000042444,None,space,1,0.4163945999898715,0.03972670000803191,,,,,,0,0,0,0,0,3,3,3,0,38,38,21,204.35253750000265,,,,,,,,,,,,,,204.3377746999904,204.35253750000265,204.35253750000265,204.85260630000266,,205.33685239999613,space,1,0.4163945999898715,0.03972670000803191,,,,,,,,,,,,,1,001,2026-04-10_15h48.35.876,0back,,2025.1.1,59.551742126051096,2026-04-10 15h48.43.703432 +0200,
39,39,0,N,A,return,2.0178749000042444,None,None,0,,,,,,,,0,0,0,0,0,3,3,3,0,39,39,35,205.35257950000232,,,,,,,,,,,,,,205.33814890000212,205.35257950000232,205.35257950000232,205.85248180000053,206.3525490000029,206.33603979999316,None,0,,,,,,,,,,,,,,,1,001,2026-04-10_15h48.35.876,0back,,2025.1.1,59.551742126051096,2026-04-10 15h48.43.703432 +0200,
40,40,0,N,Y,return,2.0178749000042444,None,None,0,,,,,,,,0,0,0,0,0,3,3,3,0,40,40,42,206.3525490000029,,,,,,,,,,,,,,206.33718449999287,206.3525490000029,206.3525490000029,206.85254009999335,207.35255060000054,207.3361045999918,None,0,,,,,,,,,,,,,,,1,001,2026-04-10_15h48.35.876,0back,,2025.1.1,59.551742126051096,2026-04-10 15h48.43.703432 +0200,
41,41,0,N,M,return,2.0178749000042444,None,None,0,,,,,,,,0,0,0,0,0,3,3,3,0,41,41,5,207.35255060000054,,,,,,,,,,,,,,207.33799210000143,207.35255060000054,207.35255060000054,207.8525040999957,208.35257669999555,208.3358617999911,None,0,,,,,,,,,,,,,,,1,001,2026-04-10_15h48.35.876,0back,,2025.1.1,59.551742126051096,2026-04-10 15h48.43.703432 +0200,
42,42,0,N,N,return,2.0178749000042444,None,space,1,0.35240129999874625,0.07159829999727663,,,,,,0,0,0,0,0,3,3,3,0,42,42,25,208.35257669999555,,,,,,,,,,,,,,208.337941699996,208.35257669999555,208.35257669999555,208.85257950000232,209.3525260000024,209.33588329999475,space,1,0.35240129999874625,0.07159829999727663,,,,,,,,,,,,,1,001,2026-04-10_15h48.35.876,0back,,2025.1.1,59.551742126051096,2026-04-10 15h48.43.703432 +0200,
43,43,0,N,R,return,2.0178749000042444,None,None,0,,,,,,,,0,0,0,0,0,3,3,3,0,43,43,10,209.3525260000024,,,,,,,,,,,,,,209.3376844000013,209.3525260000024,209.3525260000024,209.8525166999898,210.35261279999395,210.33606139999756,None,0,,,,,,,,,,,,,,,1,001,2026-04-10_15h48.35.876,0back,,2025.1.1,59.551742126051096,2026-04-10 15h48.43.703432 +0200,
44,44,0,N,M,return,2.0178749000042444,None,None,0,,,,,,,,0,0,0,0,0,3,3,3,0,44,44,4,210.35261279999395,,,,,,,,,,,,,,210.33752499999537,210.35261279999395,210.35261279999395,210.8525568999903,211.35266849999607,211.33625619999657,None,0,,,,,,,,,,,,,,,1,001,2026-04-10_15h48.35.876,0back,,2025.1.1,59.551742126051096,2026-04-10 15h48.43.703432 +0200,
45,45,0,N,M,return,2.0178749000042444,None,None,0,,,,,,,,0,0,0,0,0,3,3,3,0,45,45,7,211.35266849999607,,,,,,,,,,,,,,211.33651959999406,211.35266849999607,211.35266849999607,211.85258039999462,212.3525859999936,212.33588600000076,None,0,,,,,,,,,,,,,,,1,001,2026-04-10_15h48.35.876,0back,,2025.1.1,59.551742126051096,2026-04-10 15h48.43.703432 +0200,
46,46,0,N,Z,return,2.0178749000042444,None,None,0,,,,,,,,0,0,0,0,0,3,3,3,0,46,46,39,212.3525859999936,,,,,,,,,,,,,,212.33707349999167,212.3525859999936,212.3525859999936,212.85254829999758,213.35254199999326,213.3360560000001,None,0,,,,,,,,,,,,,,,1,001,2026-04-10_15h48.35.876,0back,,2025.1.1,59.551742126051096,2026-04-10 15h48.43.703432 +0200,
47,47,0,N,R,return,2.0178749000042444,None,None,0,,,,,,,,0,0,0,0,0,3,3,3,0,47,47,16,213.35254199999326,,,,,,,,,,,,,,213.33739230000356,213.35254199999326,213.35254199999326,213.85257999999158,214.3538872999925,214.33608349999122,None,0,,,,,,,,,,,,,,,1,001,2026-04-10_15h48.35.876,0back,,2025.1.1,59.551742126051096,2026-04-10 15h48.43.703432 +0200,
48,48,0,N,N,return,2.0178749000042444,None,space,1,0.39994089999527205,0.0627095000090776,,,,,,0,0,0,0,0,3,3,3,0,48,48,22,214.3538872999925,,,,,,,,,,,,,,214.33785409999837,214.3538872999925,214.3538872999925,214.86923070000194,,215.35265699999582,space,1,0.39994089999527205,0.0627095000090776,,,,,,,,,,,,,1,001,2026-04-10_15h48.35.876,0back,,2025.1.1,59.551742126051096,2026-04-10 15h48.43.703432 +0200,
49,49,0,N,R,return,2.0178749000042444,None,None,0,,,,,,,,0,0,0,0,0,3,3,3,0,49,49,14,215.36916829999245,,,,,,,,,,,,,,215.35382899999968,215.36916829999245,215.36916829999245,215.86925009998959,,216.35276120000344,None,0,,,,,,,,,,,,,,,1,001,2026-04-10_15h48.35.876,0back,,2025.1.1,59.551742126051096,2026-04-10 15h48.43.703432 +0200,
3,3,0,N,,return,2.0178749000042444,None,,,,,,,,,,0,0,0,0,0,3,3,3,,,,,,,,,,,,,,,,,,,,,,,,,,,,,,,,,,,,,,,,,1,001,2026-04-10_15h48.35.876,0back,,2025.1.1,59.551742126051096,2026-04-10 15h48.43.703432 +0200,
0,0,0,,,,,,,,,,7.0,19.358092900001793,1,[27.145728099989356],[27.145732999997563],0,0,0,0,,,,,,,,,,,,,,,,,,,,,,,,,,,,,,,,,216.3625766999903,216.39348739999696,216.39348739999696,216.39348739999696,216.39348739999696,216.39348739999696,243.5398387000023,7.0,19.358092900001793,1,[27.145728099989356],[27.145732999997563],1,001,2026-04-10_15h48.35.876,0back,,2025.1.1,59.551742126051096,2026-04-10 15h48.43.703432 +0200,
0,0,0,N,Q,return,3.582161199999973,None,None,0,,,,,,,,1,0,1,0,0,0,0,3,0,0,0,47,247.1746323999978,,,,,243.559488400002,243.56193429999985,243.56193429999985,243.56193429999985,243.56193429999985,247.1529867999925,return,3.582161199999973,None,247.17203549999977,247.1746323999978,247.1746323999978,247.68568969999615,,248.1692755999975,None,0,,,,,,,,,,,,,,,1,001,2026-04-10_15h48.35.876,0back,,2025.1.1,59.551742126051096,2026-04-10 15h48.43.703432 +0200,
1,1,0,N,M,return,3.582161199999973,None,None,0,,,,,,,,1,0,1,0,0,0,0,3,0,1,1,5,248.18577099998947,,,,,,,,,,,,,,248.17045730000245,248.18577099998947,248.18577099998947,248.68582590000005,,249.16930819999834,None,0,,,,,,,,,,,,,,,1,001,2026-04-10_15h48.35.876,0back,,2025.1.1,59.551742126051096,2026-04-10 15h48.43.703432 +0200,
2,2,0,N,R,return,3.582161199999973,None,None,0,,,,,,,,1,0,1,0,0,0,0,3,0,2,2,15,249.18574190000072,,,,,,,,,,,,,,249.1704785000038,249.18574190000072,249.18574190000072,249.68575269999565,,250.16935869998997,None,0,,,,,,,,,,,,,,,1,001,2026-04-10_15h48.35.876,0back,,2025.1.1,59.551742126051096,2026-04-10 15h48.43.703432 +0200,
3,3,0,N,R,return,3.582161199999973,None,None,0,,,,,,,,1,0,1,0,0,0,0,3,0,3,3,16,250.18576819999726,,,,,,,,,,,,,,250.16951910000353,250.18576819999726,250.18576819999726,250.6857721999986,,251.1692977999919,None,0,,,,,,,,,,,,,,,1,001,2026-04-10_15h48.35.876,0back,,2025.1.1,59.551742126051096,2026-04-10 15h48.43.703432 +0200,
4,4,0,N,R,return,3.582161199999973,None,None,0,,,,,,,,1,0,1,0,0,0,0,3,0,4,4,10,251.18583919999946,,,,,,,,,,,,,,251.16942399999243,251.18583919999946,251.18583919999946,251.68578559999878,,252.16946720000124,None,0,,,,,,,,,,,,,,,1,001,2026-04-10_15h48.35.876,0back,,2025.1.1,59.551742126051096,2026-04-10 15h48.43.703432 +0200,
5,5,0,N,A,return,3.582161199999973,None,None,0,,,,,,,,1,0,1,0,0,0,0,3,0,5,5,33,252.18591159999778,,,,,,,,,,,,,,252.17154309999023,252.18591159999778,252.18591159999778,252.68575389999023,,253.16932980000274,None,0,,,,,,,,,,,,,,,1,001,2026-04-10_15h48.35.876,0back,,2025.1.1,59.551742126051096,2026-04-10 15h48.43.703432 +0200,
6,6,0,N,N,return,3.582161199999973,None,space,1,0.3828057000064291,0.07160080000176094,,,,,,1,0,1,0,0,0,0,3,0,6,6,22,253.18573859999015,,,,,,,,,,,,,,253.17125879999367,253.18573859999015,253.18573859999015,253.68584859999828,,254.16932829999132,space,1,0.3828057000064291,0.07160080000176094,,,,,,,,,,,,,1,001,2026-04-10_15h48.35.876,0back,,2025.1.1,59.551742126051096,2026-04-10 15h48.43.703432 +0200,
7,7,0,N,E,return,3.582161199999973,None,None,0,,,,,,,,1,0,1,0,0,0,0,3,0,7,7,40,254.1857905999932,,,,,,,,,,,,,,254.1705346999952,254.1857905999932,254.1857905999932,254.6857272999914,,255.16945780000242,None,0,,,,,,,,,,,,,,,1,001,2026-04-10_15h48.35.876,0back,,2025.1.1,59.551742126051096,2026-04-10 15h48.43.703432 +0200,
8,8,0,N,Z,return,3.582161199999973,None,None,0,,,,,,,,1,0,1,0,0,0,0,3,0,8,8,39,255.18574960000115,,,,,,,,,,,,,,255.1713202999963,255.18574960000115,255.18574960000115,255.68569209999987,,256.1695455000008,None,0,,,,,,,,,,,,,,,1,001,2026-04-10_15h48.35.876,0back,,2025.1.1,59.551742126051096,2026-04-10 15h48.43.703432 +0200,
9,9,0,N,A,return,3.582161199999973,None,None,0,,,,,,,,1,0,1,0,0,0,0,3,0,9,9,34,256.1857858000003,,,,,,,,,,,,,,256.1708825999958,256.1857858000003,256.1857858000003,256.68577739999455,,257.1692877000023,None,0,,,,,,,,,,,,,,,1,001,2026-04-10_15h48.35.876,0back,,2025.1.1,59.551742126051096,2026-04-10 15h48.43.703432 +0200,
10,10,0,N,I,return,3.582161199999973,None,None,0,,,,,,,,1,0,1,0,0,0,0,3,0,10,10,44,257.1857908999955,,,,,,,,,,,,,,257.17079619999276,257.1857908999955,257.1857908999955,257.6857392999955,,258.1693544000009,None,0,,,,,,,,,,,,,,,1,001,2026-04-10_15h48.35.876,0back,,2025.1.1,59.551742126051096,2026-04-10 15h48.43.703432 +0200,
11,11,0,N,R,return,3.582161199999973,None,None,0,,,,,,,,1,0,1,0,0,0,0,3,0,11,11,17,258.18586479999067,,,,,,,,,,,,,,258.17130239999096,258.18586479999067,258.18586479999067,258.6856783999974,,259.1693926000007,None,0,,,,,,,,,,,,,,,1,001,2026-04-10_15h48.35.876,0back,,2025.1.1,59.551742126051096,2026-04-10 15h48.43.703432 +0200,
12,12,0,N,N,return,3.582161199999973,None,space,1,0.4212033999938285,0.0721793999982765,,,,,,1,0,1,0,0,0,0,3,0,12,12,19,259.1868184999912,,,,,,,,,,,,,,259.17153919998964,259.1868184999912,259.1868184999912,259.68573579999793,,260.16942740000377,space,1,0.4212033999938285,0.0721793999982765,,,,,,,,,,,,,1,001,2026-04-10_15h48.35.876,0back,,2025.1.1,59.551742126051096,2026-04-10 15h48.43.703432 +0200,
13,13,0,N,N,return,3.582161199999973,None,space,1,0.43812639999669045,0.07226770000124816,,,,,,1,0,1,0,0,0,0,3,0,13,13,26,260.1857844999904,,,,,,,,,,,,,,260.17046870000195,260.1857844999904,260.1857844999904,260.68565970000054,,261.16934179999225,space,1,0.43812639999669045,0.07226770000124816,,,,,,,,,,,,,1,001,2026-04-10_15h48.35.876,0back,,2025.1.1,59.551742126051096,2026-04-10 15h48.43.703432 +0200,
14,14,0,N,A,return,3.582161199999973,None,None,0,,,,,,,,1,0,1,0,0,0,0,3,0,14,14,31,261.1857816999982,,,,,,,,,,,,,,261.17054929998994,261.1857816999982,261.1857816999982,261.6867024999956,,262.16929459999665,None,0,,,,,,,,,,,,,,,1,001,2026-04-10_15h48.35.876,0back,,2025.1.1,59.551742126051096,2026-04-10 15h48.43.703432 +0200,
15,15,0,N,P,return,3.582161199999973,None,None,0,,,,,,,,1,0,1,0,0,0,0,3,0,15,15,46,262.18570059999183,,,,,,,,,,,,,,262.1704944999947,262.18570059999183,262.18570059999183,262.6857638999936,,263.1693748999969,None,0,,,,,,,,,,,,,,,1,001,2026-04-10_15h48.35.876,0back,,2025.1.1,59.551742126051096,2026-04-10 15h48.43.703432 +0200,
16,16,0,N,R,return,3.582161199999973,None,None,0,,,,,,,,1,0,1,0,0,0,0,3,0,16,16,12,263.18581379999523,,,,,,,,,,,,,,263.17057259999274,263.18581379999523,263.18581379999523,263.6860608999996,,264.1693366999971,None,0,,,,,,,,,,,,,,,1,001,2026-04-10_15h48.35.876,0back,,2025.1.1,59.551742126051096,2026-04-10 15h48.43.703432 +0200,
17,17,0,N,A,return,3.582161199999973,None,None,0,,,,,,,,1,0,1,0,0,0,0,3,0,17,17,32,264.18576480000047,,,,,,,,,,,,,,264.1704732999933,264.18576480000047,264.18576480000047,264.6858596999955,,265.16938500000106,None,0,,,,,,,,,,,,,,,1,001,2026-04-10_15h48.35.876,0back,,2025.1.1,59.551742126051096,2026-04-10 15h48.43.703432 +0200,
18,18,0,N,N,return,3.582161199999973,None,space,1,0.42211060000408906,0.07176649999746587,,,,,,1,0,1,0,0,0,0,3,0,18,18,25,265.1864238999988,,,,,,,,,,,,,,265.17127439999604,265.1864238999988,265.1864238999988,265.6857381000009,,266.16929579999123,space,1,0.42211060000408906,0.07176649999746587,,,,,,,,,,,,,1,001,2026-04-10_15h48.35.876,0back,,2025.1.1,59.551742126051096,2026-04-10 15h48.43.703432 +0200,
19,19,0,N,Y,return,3.582161199999973,None,None,0,,,,,,,,1,0,1,0,0,0,0,3,0,19,19,42,266.1857805000036,,,,,,,,,,,,,,266.1707879000023,266.1857805000036,266.1857805000036,266.6858327999944,,267.1693159999995,None,0,,,,,,,,,,,,,,,1,001,2026-04-10_15h48.35.876,0back,,2025.1.1,59.551742126051096,2026-04-10 15h48.43.703432 +0200,
20,20,0,N,R,return,3.582161199999973,None,None,0,,,,,,,,1,0,1,0,0,0,0,3,0,20,20,11,267.1858792999992,,,,,,,,,,,,,,267.1705071000033,267.1858792999992,267.1858792999992,267.6859822999977,,268.16927079999004,None,0,,,,,,,,,,,,,,,1,001,2026-04-10_15h48.35.876,0back,,2025.1.1,59.551742126051096,2026-04-10 15h48.43.703432 +0200,
21,21,0,N,N,return,3.582161199999973,None,space,1,0.3907257999962894,0.07205570000223815,,,,,,1,0,1,0,0,0,0,3,0,21,21,23,268.1859487000038,,,,,,,,,,,,,,268.17120769999747,268.1859487000038,268.1859487000038,268.6857621999952,,269.16923820000375,space,1,0.3907257999962894,0.07205570000223815,,,,,,,,,,,,,1,001,2026-04-10_15h48.35.876,0back,,2025.1.1,59.551742126051096,2026-04-10 15h48.43.703432 +0200,
22,22,0,N,N,return,3.582161199999973,None,space,1,0.3911233999970136,0.08816929999738932,,,,,,1,0,1,0,0,0,0,3,0,22,22,27,269.1857525999949,,,,,,,,,,,,,,269.17003470000054,269.1857525999949,269.1857525999949,269.6858113999915,,270.1692649000033,space,1,0.3911233999970136,0.08816929999738932,,,,,,,,,,,,,1,001,2026-04-10_15h48.35.876,0back,,2025.1.1,59.551742126051096,2026-04-10 15h48.43.703432 +0200,
23,23,0,N,M,return,3.582161199999973,None,None,0,,,,,,,,1,0,1,0,0,0,0,3,0,23,23,6,270.18579429999227,,,,,,,,,,,,,,270.1705546000012,270.18579429999227,270.18579429999227,270.6857588999992,,271.1533214999945,None,0,,,,,,,,,,,,,,,1,001,2026-04-10_15h48.35.876,0back,,2025.1.1,59.551742126051096,2026-04-10 15h48.43.703432 +0200,
24,24,0,N,M,return,3.582161199999973,None,None,0,,,,,,,,1,0,1,0,0,0,0,3,0,24,24,0,271.1692927999975,,,,,,,,,,,,,,271.1534698000032,271.1692927999975,271.1692927999975,271.66964569999254,272.16929259999597,272.1530344999919,None,0,,,,,,,,,,,,,,,1,001,2026-04-10_15h48.35.876,0back,,2025.1.1,59.551742126051096,2026-04-10 15h48.43.703432 +0200,
25,25,0,N,A,return,3.582161199999973,None,None,0,,,,,,,,1,0,1,0,0,0,0,3,0,25,25,35,272.16929259999597,,,,,,,,,,,,,,272.1552501999977,272.16929259999597,272.16929259999597,272.6692963999958,273.1692430999974,273.1530503999966,None,0,,,,,,,,,,,,,,,1,001,2026-04-10_15h48.35.876,0back,,2025.1.1,59.551742126051096,2026-04-10 15h48.43.703432 +0200,
26,26,0,N,M,return,3.582161199999973,None,None,0,,,,,,,,1,0,1,0,0,0,0,3,0,26,26,7,273.1692430999974,,,,,,,,,,,,,,273.1550065999909,273.1692430999974,273.1692430999974,273.66927430000214,274.1692664000002,274.1529002000025,None,0,,,,,,,,,,,,,,,1,001,2026-04-10_15h48.35.876,0back,,2025.1.1,59.551742126051096,2026-04-10 15h48.43.703432 +0200,
27,27,0,N,R,return,3.582161199999973,None,None,0,,,,,,,,1,0,1,0,0,0,0,3,0,27,27,13,274.1692664000002,,,,,,,,,,,,,,274.1543082999997,274.1692664000002,274.1692664000002,274.6692406999937,275.1692808999942,275.15281929999765,None,0,,,,,,,,,,,,,,,1,001,2026-04-10_15h48.35.876,0back,,2025.1.1,59.551742126051096,2026-04-10 15h48.43.703432 +0200,
28,28,0,N,D,return,3.582161199999973,None,None,0,,,,,,,,1,0,1,0,0,0,0,3,0,28,28,48,275.1692808999942,,,,,,,,,,,,,,275.15411550000135,275.1692808999942,275.1692808999942,275.66928370000096,276.1692187000008,276.1526526999951,None,0,,,,,,,,,,,,,,,1,001,2026-04-10_15h48.35.876,0back,,2025.1.1,59.551742126051096,2026-04-10 15h48.43.703432 +0200,
29,29,0,N,M,return,3.582161199999973,None,None,0,,,,,,,,1,0,1,0,0,0,0,3,0,29,29,2,276.1692187000008,,,,,,,,,,,,,,276.154131999996,276.1692187000008,276.1692187000008,276.66928049999115,277.1697631999996,277.15278370000306,None,0,,,,,,,,,,,,,,,1,001,2026-04-10_15h48.35.876,0back,,2025.1.1,59.551742126051096,2026-04-10 15h48.43.703432 +0200,
30,30,0,N,N,return,3.582161199999973,None,space,1,0.39847179999924265,0.08834020000358578,,,,,,1,0,1,0,0,0,0,3,0,30,30,20,277.1697631999996,,,,,,,,,,,,,,277.15483069999027,277.1697631999996,277.1697631999996,277.6693202000024,278.16930349999166,278.15268139999534,space,1,0.39847179999924265,0.08834020000358578,,,,,,,,,,,,,1,001,2026-04-10_15h48.35.876,0back,,2025.1.1,59.551742126051096,2026-04-10 15h48.43.703432 +0200,
31,31,0,N,C,return,3.582161199999973,None,None,0,,,,,,,,1,0,1,0,0,0,0,3,0,31,31,49,278.16930349999166,,,,,,,,,,,,,,278.15392019999854,278.16930349999166,278.16930349999166,278.6692406999937,279.16936529999657,279.15275049999764,None,0,,,,,,,,,,,,,,,1,001,2026-04-10_15h48.35.876,0back,,2025.1.1,59.551742126051096,2026-04-10 15h48.43.703432 +0200,
32,32,0,N,O,return,3.582161199999973,None,None,0,,,,,,,,1,0,1,0,0,0,0,3,0,32,32,45,279.16936529999657,,,,,,,,,,,,,,279.153911100002,279.16936529999657,279.16936529999657,279.6692344999901,280.1692960999935,280.15267080000194,None,0,,,,,,,,,,,,,,,1,001,2026-04-10_15h48.35.876,0back,,2025.1.1,59.551742126051096,2026-04-10 15h48.43.703432 +0200,
33,33,0,N,M,return,3.582161199999973,None,None,0,,,,,,,,1,0,1,0,0,0,0,3,0,33,33,8,280.1692960999935,,,,,,,,,,,,,,280.1539305999904,280.1692960999935,280.1692960999935,280.6691592999996,,281.1539081999945,None,0,,,,,,,,,,,,,,,1,001,2026-04-10_15h48.35.876,0back,,2025.1.1,59.551742126051096,2026-04-10 15h48.43.703432 +0200,
34,34,0,N,N,return,3.582161199999973,None,space,1,0.3756338999955915,0.07152610000048298,,,,,,1,0,1,0,0,0,0,3,0,34,34,24,281.1692830999964,,,,,,,,,,,,,,281.15664339999785,281.1692830999964,281.1692830999964,281.6693144000019,282.16928400000324,282.15296130000206,space,1,0.3756338999955915,0.07152610000048298,,,,,,,,,,,,,1,001,2026-04-10_15h48.35.876,0back,,2025.1.1,59.551742126051096,2026-04-10 15h48.43.703432 +0200,
35,35,0,N,A,return,3.582161199999973,None,None,0,,,,,,,,1,0,1,0,0,0,0,3,0,35,35,29,282.16928400000324,,,,,,,,,,,,,,282.1545880999911,282.16928400000324,282.16928400000324,282.66922769999655,283.17015489999903,283.1527264999895,None,0,,,,,,,,,,,,,,,1,001,2026-04-10_15h48.35.876,0back,,2025.1.1,59.551742126051096,2026-04-10 15h48.43.703432 +0200,
36,36,0,N,N,return,3.582161199999973,None,space,1,0.4715239999932237,0.07084420000319369,,,,,,1,0,1,0,0,0,0,3,0,36,36,21,283.17015489999903,,,,,,,,,,,,,,283.1545075999893,283.17015489999903,283.17015489999903,283.66926819999935,284.16926789999707,284.15263470000355,space,1,0.4715239999932237,0.07084420000319369,,,,,,,,,,,,,1,001,2026-04-10_15h48.35.876,0back,,2025.1.1,59.551742126051096,2026-04-10 15h48.43.703432 +0200,
37,37,0,N,N,return,3.582161199999973,None,space,1,0.35128260000783484,0.07210940000368282,,,,,,1,0,1,0,0,0,0,3,0,37,37,28,284.16926789999707,,,,,,,,,,,,,,284.15338409999094,284.16926789999707,284.16926789999707,284.669324699993,285.16939509999065,285.15271919999213,space,1,0.35128260000783484,0.07210940000368282,,,,,,,,,,,,,1,001,2026-04-10_15h48.35.876,0back,,2025.1.1,59.551742126051096,2026-04-10 15h48.43.703432 +0200,
38,38,0,N,M,return,3.582161199999973,None,space,1,0.343303300003754,0.056145299997297116,,,,,,1,0,1,0,0,0,0,3,0,38,38,3,285.16939509999065,,,,,,,,,,,,,,285.1541198999912,285.16939509999065,285.16939509999065,285.6692660999979,286.1694121000037,286.1528666999948,space,1,0.343303300003754,0.056145299997297116,,,,,,,,,,,,,1,001,2026-04-10_15h48.35.876,0back,,2025.1.1,59.551742126051096,2026-04-10 15h48.43.703432 +0200,
39,39,0,N,A,return,3.582161199999973,None,None,0,,,,,,,,1,0,1,0,0,0,0,3,0,39,39,37,286.1694121000037,,,,,,,,,,,,,,286.154269199993,286.1694121000037,286.1694121000037,286.6692420999898,287.1693532999925,287.1527284999902,None,0,,,,,,,,,,,,,,,1,001,2026-04-10_15h48.35.876,0back,,2025.1.1,59.551742126051096,2026-04-10 15h48.43.703432 +0200,
40,40,0,N,M,return,3.582161199999973,None,None,0,,,,,,,,1,0,1,0,0,0,0,3,0,40,40,4,287.1693532999925,,,,,,,,,,,,,,287.1538789999904,287.1693532999925,287.1693532999925,287.669253,288.16939470000216,288.15286509999714,None,0,,,,,,,,,,,,,,,1,001,2026-04-10_15h48.35.876,0back,,2025.1.1,59.551742126051096,2026-04-10 15h48.43.703432 +0200,
41,41,0,N,A,return,3.582161199999973,None,None,0,,,,,,,,1,0,1,0,0,0,0,3,0,41,41,30,288.16939470000216,,,,,,,,,,,,,,288.15413830000034,288.16939470000216,288.16939470000216,288.66926650000096,289.16929289999825,289.1529881000024,None,0,,,,,,,,,,,,,,,1,001,2026-04-10_15h48.35.876,0back,,2025.1.1,59.551742126051096,2026-04-10 15h48.43.703432 +0200,
42,42,0,N,A,return,3.582161199999973,None,None,0,,,,,,,,1,0,1,0,0,0,0,3,0,42,42,36,289.16929289999825,,,,,,,,,,,,,,289.1532176000037,289.16929289999825,289.16929289999825,289.6692597999936,,290.1530905999971,None,0,,,,,,,,,,,,,,,1,001,2026-04-10_15h48.35.876,0back,,2025.1.1,59.551742126051096,2026-04-10 15h48.43.703432 +0200,
43,43,0,N,M,return,3.582161199999973,None,None,0,,,,,,,,1,0,1,0,0,0,0,3,0,43,43,1,290.16936089999217,,,,,,,,,,,,,,290.15425120000145,290.16936089999217,290.16936089999217,290.66935979999835,291.1693452000036,291.1528357999923,None,0,,,,,,,,,,,,,,,1,001,2026-04-10_15h48.35.876,0back,,2025.1.1,59.551742126051096,2026-04-10 15h48.43.703432 +0200,
44,44,0,N,R,return,3.582161199999973,None,None,0,,,,,,,,1,0,1,0,0,0,0,3,0,44,44,18,291.1693452000036,,,,,,,,,,,,,,291.1543332000001,291.1693452000036,291.1693452000036,291.6692533000023,292.16995060000045,292.1527485999977,None,0,,,,,,,,,,,,,,,1,001,2026-04-10_15h48.35.876,0back,,2025.1.1,59.551742126051096,2026-04-10 15h48.43.703432 +0200,
45,45,0,N,U,return,3.582161199999973,None,None,0,,,,,,,,1,0,1,0,0,0,0,3,0,45,45,43,292.16995060000045,,,,,,,,,,,,,,292.15396670000337,292.16995060000045,292.16995060000045,292.66927469999064,293.1693393000023,293.15281590000086,None,0,,,,,,,,,,,,,,,1,001,2026-04-10_15h48.35.876,0back,,2025.1.1,59.551742126051096,2026-04-10 15h48.43.703432 +0200,
46,46,0,N,R,return,3.582161199999973,None,None,0,,,,,,,,1,0,1,0,0,0,0,3,0,46,46,9,293.1693393000023,,,,,,,,,,,,,,293.1550447999907,293.1693393000023,293.1693393000023,293.6691829999909,294.1692749999929,294.15291140000045,None,0,,,,,,,,,,,,,,,1,001,2026-04-10_15h48.35.876,0back,,2025.1.1,59.551742126051096,2026-04-10 15h48.43.703432 +0200,
47,47,0,N,T,return,3.582161199999973,None,None,0,,,,,,,,1,0,1,0,0,0,0,3,0,47,47,41,294.1692749999929,,,,,,,,,,,,,,294.1552646999917,294.1692749999929,294.1692749999929,294.6692258999974,295.169292999999,295.15273739999975,None,0,,,,,,,,,,,,,,,1,001,2026-04-10_15h48.35.876,0back,,2025.1.1,59.551742126051096,2026-04-10 15h48.43.703432 +0200,
48,48,0,N,R,return,3.582161199999973,None,None,0,,,,,,,,1,0,1,0,0,0,0,3,0,48,48,14,295.169292999999,,,,,,,,,,,,,,295.15391049999744,295.169292999999,295.169292999999,295.6692619999958,296.16922299998987,296.1530305999913,None,0,,,,,,,,,,,,,,,1,001,2026-04-10_15h48.35.876,0back,,2025.1.1,59.551742126051096,2026-04-10 15h48.43.703432 +0200,
49,49,0,N,A,return,3.582161199999973,None,None,0,,,,,,,,1,0,1,0,0,0,0,3,0,49,49,38,296.16922299998987,,,,,,,,,,,,,,296.15573790000053,296.16922299998987,296.16922299998987,296.6692919999914,297.16935260000173,297.15279019999434,None,0,,,,,,,,,,,,,,,1,001,2026-04-10_15h48.35.876,0back,,2025.1.1,59.551742126051096,2026-04-10 15h48.43.703432 +0200,
0,0,0,N,,return,3.582161199999973,None,,,,,,,,,,1,0,1,0,0,0,0,3,,,,,,,,,,,,,,,,,,,,,,,,,,,,,,,,,,,,,,,,,1,001,2026-04-10_15h48.35.876,0back,,2025.1.1,59.551742126051096,2026-04-10 15h48.43.703432 +0200,
0,0,0,A,R,return,1.4313894999941112,None,None,0,,,,,,,,1,0,1,0,0,1,1,2,0,0,0,12,298.6192912999977,,,,,297.15858599999046,297.16935260000173,297.16935260000173,297.16935260000173,297.16935260000173,298.60276069999964,return,1.4313894999941112,None,298.6082441000035,298.6192912999977,298.6192912999977,299.1192788999906,299.6195226999989,299.60270209999,None,0,,,,,,,,,,,,,,,1,001,2026-04-10_15h48.35.876,0back,,2025.1.1,59.551742126051096,2026-04-10 15h48.43.703432 +0200,
1,1,0,A,A,return,1.4313894999941112,None,space,1,0.3574580000131391,0.07954579999204725,,,,,,1,0,1,0,0,1,1,2,0,1,1,38,299.6195226999989,,,,,,,,,,,,,,299.6049167000019,299.6195226999989,299.6195226999989,300.11933339999814,300.61926929999026,300.60278980000294,space,1,0.3574580000131391,0.07954579999204725,,,,,,,,,,,,,1,001,2026-04-10_15h48.35.876,0back,,2025.1.1,59.551742126051096,2026-04-10 15h48.43.703432 +0200,
2,2,0,A,A,return,1.4313894999941112,None,space,1,0.35733929999696556,0.064163599992753,,,,,,1,0,1,0,0,1,1,2,0,2,2,32,300.61926929999026,,,,,,,,,,,,,,300.60364629999094,300.61926929999026,300.61926929999026,301.12036739999894,301.6200142000016,301.6027288999903,space,1,0.35733929999696556,0.064163599992753,,,,,,,,,,,,,1,001,2026-04-10_15h48.35.876,0back,,2025.1.1,59.551742126051096,2026-04-10 15h48.43.703432 +0200,
3,3,0,A,R,return,1.4313894999941112,None,None,0,,,,,,,,1,0,1,0,0,1,1,2,0,3,3,15,301.6200142000016,,,,,,,,,,,,,,301.6039228000009,301.6200142000016,301.6200142000016,302.11922649999906,302.619217200001,302.6027788999927,None,0,,,,,,,,,,,,,,,1,001,2026-04-10_15h48.35.876,0back,,2025.1.1,59.551742126051096,2026-04-10 15h48.43.703432 +0200,
4,4,0,A,R,return,1.4313894999941112,None,None,0,,,,,,,,1,0,1,0,0,1,1,2,0,4,4,18,302.619217200001,,,,,,,,,,,,,,302.6029090999946,302.619217200001,302.619217200001,303.1192464999913,303.6192682999972,303.6027638999949,None,0,,,,,,,,,,,,,,,1,001,2026-04-10_15h48.35.876,0back,,2025.1.1,59.551742126051096,2026-04-10 15h48.43.703432 +0200,
5,5,0,A,R,return,1.4313894999941112,None,None,0,,,,,,,,1,0,1,0,0,1,1,2,0,5,5,14,303.6192682999972,,,,,,,,,,,,,,303.60288059999584,303.6192682999972,303.6192682999972,304.119237299994,304.61931009999535,304.6028743999923,None,0,,,,,,,,,,,,,,,1,001,2026-04-10_15h48.35.876,0back,,2025.1.1,59.551742126051096,2026-04-10 15h48.43.703432 +0200,
6,6,0,A,A,return,1.4313894999941112,None,space,1,0.3815684000001056,0.0718157999945106,,,,,,1,0,1,0,0,1,1,2,0,6,6,36,304.61931009999535,,,,,,,,,,,,,,304.6049600999977,304.61931009999535,304.61931009999535,305.11932679999154,305.61933449999196,305.60292419999314,space,1,0.3815684000001056,0.0718157999945106,,,,,,,,,,,,,1,001,2026-04-10_15h48.35.876,0back,,2025.1.1,59.551742126051096,2026-04-10 15h48.43.703432 +0200,
7,7,0,A,M,return,1.4313894999941112,None,None,0,,,,,,,,1,0,1,0,0,1,1,2,0,7,7,0,305.61933449999196,,,,,,,,,,,,,,305.60467859999335,305.61933449999196,305.61933449999196,306.11924129999534,306.61930739998934,306.60286440000345,None,0,,,,,,,,,,,,,,,1,001,2026-04-10_15h48.35.876,0back,,2025.1.1,59.551742126051096,2026-04-10 15h48.43.703432 +0200,
8,8,0,A,Y,return,1.4313894999941112,None,None,0,,,,,,,,1,0,1,0,0,1,1,2,0,8,8,42,306.61930739998934,,,,,,,,,,,,,,306.6040015999897,306.61930739998934,306.61930739998934,307.1192437999998,,307.60283809999237,None,0,,,,,,,,,,,,,,,1,001,2026-04-10_15h48.35.876,0back,,2025.1.1,59.551742126051096,2026-04-10 15h48.43.703432 +0200,
9,9,0,A,N,return,1.4313894999941112,None,None,0,,,,,,,,1,0,1,0,0,1,1,2,0,9,9,22,307.6192594000022,,,,,,,,,,,,,,307.6040026999981,307.6192594000022,307.6192594000022,308.11927519999153,308.61924069999077,308.6027214999922,None,0,,,,,,,,,,,,,,,1,001,2026-04-10_15h48.35.876,0back,,2025.1.1,59.551742126051096,2026-04-10 15h48.43.703432 +0200,
10,10,0,A,O,return,1.4313894999941112,None,None,0,,,,,,,,1,0,1,0,0,1,1,2,0,10,10,45,308.61924069999077,,,,,,,,,,,,,,308.6038769000006,308.61924069999077,308.61924069999077,309.11925649999466,309.61930700000084,309.6027688999893,None,0,,,,,,,,,,,,,,,1,001,2026-04-10_15h48.35.876,0back,,2025.1.1,59.551742126051096,2026-04-10 15h48.43.703432 +0200,
11,11,0,A,M,return,1.4313894999941112,None,None,0,,,,,,,,1,0,1,0,0,1,1,2,0,11,11,8,309.61930700000084,,,,,,,,,,,,,,309.60388409999723,309.61930700000084,309.61930700000084,310.119283299995,310.6192957000021,310.6027994999895,None,0,,,,,,,,,,,,,,,1,001,2026-04-10_15h48.35.876,0back,,2025.1.1,59.551742126051096,2026-04-10 15h48.43.703432 +0200,
12,12,0,A,N,return,1.4313894999941112,None,None,0,,,,,,,,1,0,1,0,0,1,1,2,0,12,12,24,310.6192957000021,,,,,,,,,,,,,,310.603964599999,310.6192957000021,310.6192957000021,311.11928649999027,311.61929370000144,311.60287750000134,None,0,,,,,,,,,,,,,,,1,001,2026-04-10_15h48.35.876,0back,,2025.1.1,59.551742126051096,2026-04-10 15h48.43.703432 +0200,
13,13,0,A,M,return,1.4313894999941112,None,None,0,,,,,,,,1,0,1,0,0,1,1,2,0,13,13,3,311.61929370000144,,,,,,,,,,,,,,311.60409579999396,311.61929370000144,311.61929370000144,312.11927009999636,312.6193535999919,312.6029750000016,None,0,,,,,,,,,,,,,,,1,001,2026-04-10_15h48.35.876,0back,,2025.1.1,59.551742126051096,2026-04-10 15h48.43.703432 +0200,
14,14,0,A,M,return,1.4313894999941112,None,None,0,,,,,,,,1,0,1,0,0,1,1,2,0,14,14,1,312.6193535999919,,,,,,,,,,,,,,312.60324159999436,312.6193535999919,312.6193535999919,313.1193815000006,313.61921659999643,313.6028942999983,None,0,,,,,,,,,,,,,,,1,001,2026-04-10_15h48.35.876,0back,,2025.1.1,59.551742126051096,2026-04-10 15h48.43.703432 +0200,
15,15,0,A,A,return,1.4313894999941112,None,space,1,0.4051407999941148,0.06381900000269525,,,,,,1,0,1,0,0,1,1,2,0,15,15,33,313.61921659999643,,,,,,,,,,,,,,313.6050527999905,313.61921659999643,313.61921659999643,314.1192241999961,314.6193535999919,314.6027583999967,space,1,0.4051407999941148,0.06381900000269525,,,,,,,,,,,,,1,001,2026-04-10_15h48.35.876,0back,,2025.1.1,59.551742126051096,2026-04-10 15h48.43.703432 +0200,
16,16,0,A,D,return,1.4313894999941112,None,None,0,,,,,,,,1,0,1,0,0,1,1,2,0,16,16,48,314.6193535999919,,,,,,,,,,,,,,314.6038802999974,314.6193535999919,314.6193535999919,315.11920659999305,315.61932640000305,315.60283190000337,None,0,,,,,,,,,,,,,,,1,001,2026-04-10_15h48.35.876,0back,,2025.1.1,59.551742126051096,2026-04-10 15h48.43.703432 +0200,
17,17,0,A,M,return,1.4313894999941112,None,None,0,,,,,,,,1,0,1,0,0,1,1,2,0,17,17,7,315.61932640000305,,,,,,,,,,,,,,315.60399089999555,315.61932640000305,315.61932640000305,316.1192713999917,316.61924739999813,316.6027873999992,None,0,,,,,,,,,,,,,,,1,001,2026-04-10_15h48.35.876,0back,,2025.1.1,59.551742126051096,2026-04-10 15h48.43.703432 +0200,
18,18,0,A,E,return,1.4313894999941112,None,None,0,,,,,,,,1,0,1,0,0,1,1,2,0,18,18,40,316.61924739999813,,,,,,,,,,,,,,316.6039923999924,316.61924739999813,316.61924739999813,317.1192674999911,317.61930700000084,317.60291600000346,None,0,,,,,,,,,,,,,,,1,001,2026-04-10_15h48.35.876,0back,,2025.1.1,59.551742126051096,2026-04-10 15h48.43.703432 +0200,
19,19,0,A,M,return,1.4313894999941112,None,None,0,,,,,,,,1,0,1,0,0,1,1,2,0,19,19,6,317.61930700000084,,,,,,,,,,,,,,317.6040740000026,317.61930700000084,317.61930700000084,318.1192863000033,318.61923650000244,318.60276349999185,None,0,,,,,,,,,,,,,,,1,001,2026-04-10_15h48.35.876,0back,,2025.1.1,59.551742126051096,2026-04-10 15h48.43.703432 +0200,
