thisN,thisTrialN,thisRepN,target,thisLetter,key_resp_2.keys,key_resp_2.rt,key_resp_2.duration,key_resp.keys,key_resp.corr,key_resp.rt,key_resp.duration,RSME_ticks.response,RSME_ticks.rt,button_next_11.numClicks,button_next_11.timesOn,button_next_11.timesOff,Blocks_X6.thisRepN,Blocks_X6.thisTrialN,Blocks_X6.thisN,Blocks_X6.thisIndex,Sequence_of_targets_X4.thisRepN,Sequence_of_targets_X4.thisTrialN,Sequence_of_targets_X4.thisN,Sequence_of_targets_X4.thisIndex,trial_X50.thisRepN,trial_X50.thisTrialN,trial_X50.thisN,trial_X50.thisIndex,thisRow.t,notes,INIT_LSL.started,text_init.started,INIT_LSL.stopped,INTRO_PRE_BLOCK.started,text.started,key_resp_2.started,text_6.started,text_7.started,INTRO_PRE_BLOCK.stopped,Sequence_of_targets_X4.key_resp_2.keys,Sequence_of_targets_X4.key_resp_2.rt,Sequence_of_targets_X4.key_resp_2.duration,One_Trial.started,Letter.started,key_resp.started,Letter.stopped,key_resp.stopped,One_Trial.stopped,trial_X50.key_resp.keys,trial_X50.key_resp.corr,trial_X50.key_resp.rt,trial_X50.key_resp.duration,KSS_POST_BLOCK.started,RSME_labels.started,RSME_ticks.started,RSME_text.started,answer1_text.started,button_next_11.started,KSS_POST_BLOCK.stopped,Blocks_X6.RSME_ticks.response,Blocks_X6.RSME_ticks.rt,Blocks_X6.button_next_11.numClicks,Blocks_X6.button_next_11.timesOn,Blocks_X6.button_next_11.timesOff,participant,session,date,expName,expVersion,psychopyVersion,frameRate,expStart,
,,,,,,,,,,,,,,,,,,,,,,,,,,,,,,,0.006051699994713999,0.00850969999737572,1.0019037000020035,,,,,,,,,,,,,,,,,,,,,,,,,,,,,,,,9,001,2026-04-10_15h17.45.375,0back,,2025.1.1,60.24833157201229,2026-04-10 15h17.54.430402 +0200,
0,0,0,R,N,return,6.912203300002147,None,None,0,,,,,,,,0,0,0,0,0,0,0,1,0,0,0,23,7.950978900000337,,,,,1.009973499996704,1.0187320999975782,1.0187320999975782,1.0187320999975782,1.0187320999975782,7.937839899997925,return,6.912203300002147,None,7.9446191000024555,7.950978900000337,7.950978900000337,8.45106510000187,8.950976499996614,8.93462489999365,None,0,,,,,,,,,,,,,,,9,001,2026-04-10_15h17.45.375,0back,,2025.1.1,60.24833157201229,2026-04-10 15h17.54.430402 +0200,
1,1,0,R,Z,return,6.912203300002147,None,None,0,,,,,,,,0,0,0,0,0,0,0,1,0,1,1,39,8.950976499996614,,,,,,,,,,,,,,8.936886700001196,8.950976499996614,8.950976499996614,9.451044700006605,9.951066499997978,9.934631900003296,None,0,,,,,,,,,,,,,,,9,001,2026-04-10_15h17.45.375,0back,,2025.1.1,60.24833157201229,2026-04-10 15h17.54.430402 +0200,
2,2,0,R,M,return,6.912203300002147,None,None,0,,,,,,,,0,0,0,0,0,0,0,1,0,2,2,6,9.951066499997978,,,,,,,,,,,,,,9.937130499994964,9.951066499997978,9.951066499997978,10.451102499995613,10.951095099997474,10.93517630000133,None,0,,,,,,,,,,,,,,,9,001,2026-04-10_15h17.45.375,0back,,2025.1.1,60.24833157201229,2026-04-10 15h17.54.430402 +0200,
3,3,0,R,A,return,6.912203300002147,None,None,0,,,,,,,,0,0,0,0,0,0,0,1,0,3,3,38,10.951095099997474,,,,,,,,,,,,,,10.936543699994218,10.951095099997474,10.951095099997474,11.451302800007397,11.951834000006784,11.934519700007513,None,0,,,,,,,,,,,,,,,9,001,2026-04-10_15h17.45.375,0back,,2025.1.1,60.24833157201229,2026-04-10 15h17.54.430402 +0200,
4,4,0,R,U,return,6.912203300002147,None,None,0,,,,,,,,0,0,0,0,0,0,0,1,0,4,4,43,11.951834000006784,,,,,,,,,,,,,,11.937672400003066,11.951834000006784,11.951834000006784,12.451024199996027,12.951045499998145,12.93433570000343,None,0,,,,,,,,,,,,,,,9,001,2026-04-10_15h17.45.375,0back,,2025.1.1,60.24833157201229,2026-04-10 15h17.54.430402 +0200,
5,5,0,R,P,return,6.912203300002147,None,None,0,,,,,,,,0,0,0,0,0,0,0,1,0,5,5,46,12.951045499998145,,,,,,,,,,,,,,12.936472500005038,12.951045499998145,12.951045499998145,13.451071100003901,13.951181600001291,13.934422000005725,None,0,,,,,,,,,,,,,,,9,001,2026-04-10_15h17.45.375,0back,,2025.1.1,60.24833157201229,2026-04-10 15h17.54.430402 +0200,
6,6,0,R,N,return,6.912203300002147,None,None,0,,,,,,,,0,0,0,0,0,0,0,1,0,6,6,22,13.951181600001291,,,,,,,,,,,,,,13.935557799995877,13.951181600001291,13.951181600001291,14.451038800005335,14.951118600001791,14.934599400003208,None,0,,,,,,,,,,,,,,,9,001,2026-04-10_15h17.45.375,0back,,2025.1.1,60.24833157201229,2026-04-10 15h17.54.430402 +0200,
7,7,0,R,M,return,6.912203300002147,None,None,0,,,,,,,,0,0,0,0,0,0,0,1,0,7,7,5,14.951118600001791,,,,,,,,,,,,,,14.937171900004614,14.951118600001791,14.951118600001791,15.451135199997225,15.951038200000767,15.934901999993599,None,0,,,,,,,,,,,,,,,9,001,2026-04-10_15h17.45.375,0back,,2025.1.1,60.24833157201229,2026-04-10 15h17.54.430402 +0200,
8,8,0,R,Q,return,6.912203300002147,None,None,0,,,,,,,,0,0,0,0,0,0,0,1,0,8,8,47,15.951038200000767,,,,,,,,,,,,,,15.939024399995105,15.951038200000767,15.951038200000767,16.451058299993747,16.95107480000297,16.934667299996363,None,0,,,,,,,,,,,,,,,9,001,2026-04-10_15h17.45.375,0back,,2025.1.1,60.24833157201229,2026-04-10 15h17.54.430402 +0200,
9,9,0,R,N,return,6.912203300002147,None,None,0,,,,,,,,0,0,0,0,0,0,0,1,0,9,9,28,16.95107480000297,,,,,,,,,,,,,,16.935815499993623,16.95107480000297,16.95107480000297,17.451062699998147,17.951285600007395,17.93445950000023,None,0,,,,,,,,,,,,,,,9,001,2026-04-10_15h17.45.375,0back,,2025.1.1,60.24833157201229,2026-04-10 15h17.54.430402 +0200,
10,10,0,R,R,return,6.912203300002147,None,space,1,0.5069119999971008,0.11869289999594912,,,,,,0,0,0,0,0,0,0,1,0,10,10,11,17.951285600007395,,,,,,,,,,,,,,17.9367149000027,17.951285600007395,17.951285600007395,18.451447200000985,18.95127410000714,18.93437430000631,space,1,0.5069119999971008,0.11869289999594912,,,,,,,,,,,,,9,001,2026-04-10_15h17.45.375,0back,,2025.1.1,60.24833157201229,2026-04-10 15h17.54.430402 +0200,
11,11,0,R,A,return,6.912203300002147,None,None,0,,,,,,,,0,0,0,0,0,0,0,1,0,11,11,32,18.95127410000714,,,,,,,,,,,,,,18.935501200001454,18.95127410000714,18.95127410000714,19.451309299998684,19.951048699993407,19.934370799994213,None,0,,,,,,,,,,,,,,,9,001,2026-04-10_15h17.45.375,0back,,2025.1.1,60.24833157201229,2026-04-10 15h17.54.430402 +0200,
12,12,0,R,A,return,6.912203300002147,None,None,0,,,,,,,,0,0,0,0,0,0,0,1,0,12,12,37,19.951048699993407,,,,,,,,,,,,,,19.93452100000286,19.951048699993407,19.951048699993407,20.45110960000602,20.951438400006737,20.934344799999963,None,0,,,,,,,,,,,,,,,9,001,2026-04-10_15h17.45.375,0back,,2025.1.1,60.24833157201229,2026-04-10 15h17.54.430402 +0200,
13,13,0,R,R,return,6.912203300002147,None,space,1,0.5476706000044942,0.13498319999780506,,,,,,0,0,0,0,0,0,0,1,0,13,13,18,20.951438400006737,,,,,,,,,,,,,,20.936123199993744,20.951438400006737,20.951438400006737,21.451077399993665,21.951082500003395,21.934391899994807,space,1,0.5476706000044942,0.13498319999780506,,,,,,,,,,,,,9,001,2026-04-10_15h17.45.375,0back,,2025.1.1,60.24833157201229,2026-04-10 15h17.54.430402 +0200,
14,14,0,R,M,return,6.912203300002147,None,None,0,,,,,,,,0,0,0,0,0,0,0,1,0,14,14,0,21.951082500003395,,,,,,,,,,,,,,21.935674599997583,21.951082500003395,21.951082500003395,22.451182699995115,22.95105109999713,22.934898000006797,None,0,,,,,,,,,,,,,,,9,001,2026-04-10_15h17.45.375,0back,,2025.1.1,60.24833157201229,2026-04-10 15h17.54.430402 +0200,
15,15,0,R,N,return,6.912203300002147,None,None,0,,,,,,,,0,0,0,0,0,0,0,1,0,15,15,24,22.95105109999713,,,,,,,,,,,,,,22.936103300002287,22.95105109999713,22.95105109999713,23.451101300001028,23.95105839999451,23.935033500005375,None,0,,,,,,,,,,,,,,,9,001,2026-04-10_15h17.45.375,0back,,2025.1.1,60.24833157201229,2026-04-10 15h17.54.430402 +0200,
16,16,0,R,R,return,6.912203300002147,None,space,1,0.45846270000038203,0.12075489999551792,,,,,,0,0,0,0,0,0,0,1,0,16,16,9,23.95105839999451,,,,,,,,,,,,,,23.93709669999953,23.95105839999451,23.95105839999451,24.450989000004483,24.95167959999526,24.934753299996373,space,1,0.45846270000038203,0.12075489999551792,,,,,,,,,,,,,9,001,2026-04-10_15h17.45.375,0back,,2025.1.1,60.24833157201229,2026-04-10 15h17.54.430402 +0200,
17,17,0,R,M,return,6.912203300002147,None,None,0,,,,,,,,0,0,0,0,0,0,0,1,0,17,17,2,24.95167959999526,,,,,,,,,,,,,,24.936120700003812,24.95167959999526,24.95167959999526,25.451209399994696,25.951519900001585,25.934378399993875,None,0,,,,,,,,,,,,,,,9,001,2026-04-10_15h17.45.375,0back,,2025.1.1,60.24833157201229,2026-04-10 15h17.54.430402 +0200,
18,18,0,R,N,return,6.912203300002147,None,None,0,,,,,,,,0,0,0,0,0,0,0,1,0,18,18,27,25.951519900001585,,,,,,,,,,,,,,25.935609699998167,25.951519900001585,25.951519900001585,26.45117119999486,26.951264200004516,26.934378499994637,None,0,,,,,,,,,,,,,,,9,001,2026-04-10_15h17.45.375,0back,,2025.1.1,60.24833157201229,2026-04-10 15h17.54.430402 +0200,
19,19,0,R,M,return,6.912203300002147,None,None,0,,,,,,,,0,0,0,0,0,0,0,1,0,19,19,8,26.951264200004516,,,,,,,,,,,,,,26.935599999997066,26.951264200004516,26.951264200004516,27.45112149999477,27.95115029999579,27.934378399993875,None,0,,,,,,,,,,,,,,,9,001,2026-04-10_15h17.45.375,0back,,2025.1.1,60.24833157201229,2026-04-10 15h17.54.430402 +0200,
20,20,0,R,A,return,6.912203300002147,None,None,0,,,,,,,,0,0,0,0,0,0,0,1,0,20,20,31,27.95115029999579,,,,,,,,,,,,,,27.935661499999696,27.95115029999579,27.95115029999579,28.45110219999333,28.95109610000509,28.934626500005834,None,0,,,,,,,,,,,,,,,9,001,2026-04-10_15h17.45.375,0back,,2025.1.1,60.24833157201229,2026-04-10 15h17.54.430402 +0200,
21,21,0,R,C,return,6.912203300002147,None,None,0,,,,,,,,0,0,0,0,0,0,0,1,0,21,21,49,28.95109610000509,,,,,,,,,,,,,,28.937329699998372,28.95109610000509,28.95109610000509,29.45099690000643,29.95109119999688,29.934707299995353,None,0,,,,,,,,,,,,,,,9,001,2026-04-10_15h17.45.375,0back,,2025.1.1,60.24833157201229,2026-04-10 15h17.54.430402 +0200,
22,22,0,R,T,return,6.912203300002147,None,None,0,,,,,,,,0,0,0,0,0,0,0,1,0,22,22,41,29.95109119999688,,,,,,,,,,,,,,29.937826599998516,29.95109119999688,29.95109119999688,30.451123999999254,30.951246299999184,30.93485980000696,None,0,,,,,,,,,,,,,,,9,001,2026-04-10_15h17.45.375,0back,,2025.1.1,60.24833157201229,2026-04-10 15h17.54.430402 +0200,
23,23,0,R,N,return,6.912203300002147,None,None,0,,,,,,,,0,0,0,0,0,0,0,1,0,23,23,26,30.951246299999184,,,,,,,,,,,,,,30.936674700002186,30.951246299999184,30.951246299999184,31.45117620000383,31.95110069999646,31.934403399995063,None,0,,,,,,,,,,,,,,,9,001,2026-04-10_15h17.45.375,0back,,2025.1.1,60.24833157201229,2026-04-10 15h17.54.430402 +0200,
24,24,0,R,A,return,6.912203300002147,None,None,0,,,,,,,,0,0,0,0,0,0,0,1,0,24,24,29,31.95110069999646,,,,,,,,,,,,,,31.935760899999877,31.95110069999646,31.95110069999646,32.45120369999495,32.951176600006875,32.93464839999797,None,0,,,,,,,,,,,,,,,9,001,2026-04-10_15h17.45.375,0back,,2025.1.1,60.24833157201229,2026-04-10 15h17.54.430402 +0200,
25,25,0,R,N,return,6.912203300002147,None,None,0,,,,,,,,0,0,0,0,0,0,0,1,0,25,25,21,32.951176600006875,,,,,,,,,,,,,,32.937204600006226,32.951176600006875,32.951176600006875,33.45113929999934,33.95114659999672,33.934319799998775,None,0,,,,,,,,,,,,,,,9,001,2026-04-10_15h17.45.375,0back,,2025.1.1,60.24833157201229,2026-04-10 15h17.54.430402 +0200,
26,26,0,R,N,return,6.912203300002147,None,None,0,,,,,,,,0,0,0,0,0,0,0,1,0,26,26,19,33.95114659999672,,,,,,,,,,,,,,33.93444680000539,33.95114659999672,33.95114659999672,34.451054300006945,34.95109190000221,34.9344385000004,None,0,,,,,,,,,,,,,,,9,001,2026-04-10_15h17.45.375,0back,,2025.1.1,60.24833157201229,2026-04-10 15h17.54.430402 +0200,
27,27,0,R,R,return,6.912203300002147,None,space,1,0.5071972000005189,0.14402019999397453,,,,,,0,0,0,0,0,0,0,1,0,27,27,12,34.95109190000221,,,,,,,,,,,,,,34.93621119999443,34.95109190000221,34.95109190000221,35.45111389999511,35.95114980000653,35.934412400005385,space,1,0.5071972000005189,0.14402019999397453,,,,,,,,,,,,,9,001,2026-04-10_15h17.45.375,0back,,2025.1.1,60.24833157201229,2026-04-10 15h17.54.430402 +0200,
28,28,0,R,E,return,6.912203300002147,None,None,0,,,,,,,,0,0,0,0,0,0,0,1,0,28,28,40,35.95114980000653,,,,,,,,,,,,,,35.93574850000732,35.95114980000653,35.95114980000653,36.45123200000671,36.95118509999884,36.934389500005636,None,0,,,,,,,,,,,,,,,9,001,2026-04-10_15h17.45.375,0back,,2025.1.1,60.24833157201229,2026-04-10 15h17.54.430402 +0200,
29,29,0,R,N,return,6.912203300002147,None,None,0,,,,,,,,0,0,0,0,0,0,0,1,0,29,29,20,36.95118509999884,,,,,,,,,,,,,,36.936619800006156,36.95118509999884,36.95118509999884,37.45113729999866,37.95108420000179,37.934545600001,None,0,,,,,,,,,,,,,,,9,001,2026-04-10_15h17.45.375,0back,,2025.1.1,60.24833157201229,2026-04-10 15h17.54.430402 +0200,
30,30,0,R,O,return,6.912203300002147,None,None,0,,,,,,,,0,0,0,0,0,0,0,1,0,30,30,45,37.95108420000179,,,,,,,,,,,,,,37.93857949999801,37.95108420000179,37.95108420000179,38.45105190000322,38.95119039999554,38.93440519999422,None,0,,,,,,,,,,,,,,,9,001,2026-04-10_15h17.45.375,0back,,2025.1.1,60.24833157201229,2026-04-10 15h17.54.430402 +0200,
31,31,0,R,A,return,6.912203300002147,None,None,0,,,,,,,,0,0,0,0,0,0,0,1,0,31,31,34,38.95119039999554,,,,,,,,,,,,,,38.936392999996315,38.95119039999554,38.95119039999554,39.451151500004926,39.95121850000578,39.934428799999296,None,0,,,,,,,,,,,,,,,9,001,2026-04-10_15h17.45.375,0back,,2025.1.1,60.24833157201229,2026-04-10 15h17.54.430402 +0200,
32,32,0,R,A,return,6.912203300002147,None,None,0,,,,,,,,0,0,0,0,0,0,0,1,0,32,32,30,39.95121850000578,,,,,,,,,,,,,,39.934559999994235,39.95121850000578,39.95121850000578,40.4510997000034,40.95107870000356,40.93445159999828,None,0,,,,,,,,,,,,,,,9,001,2026-04-10_15h17.45.375,0back,,2025.1.1,60.24833157201229,2026-04-10 15h17.54.430402 +0200,
33,33,0,R,R,return,6.912203300002147,None,space,1,0.4590380000008736,0.14401489999727346,,,,,,0,0,0,0,0,0,0,1,0,33,33,16,40.95107870000356,,,,,,,,,,,,,,40.93632609999622,40.95107870000356,40.95107870000356,41.45117050000408,41.951040300002205,41.93434839999827,space,1,0.4590380000008736,0.14401489999727346,,,,,,,,,,,,,9,001,2026-04-10_15h17.45.375,0back,,2025.1.1,60.24833157201229,2026-04-10 15h17.54.430402 +0200,
34,34,0,R,M,return,6.912203300002147,None,None,0,,,,,,,,0,0,0,0,0,0,0,1,0,34,34,4,41.951040300002205,,,,,,,,,,,,,,41.93602199999441,41.951040300002205,41.951040300002205,42.45110380000551,42.95103640000161,42.93442220000725,None,0,,,,,,,,,,,,,,,9,001,2026-04-10_15h17.45.375,0back,,2025.1.1,60.24833157201229,2026-04-10 15h17.54.430402 +0200,
35,35,0,R,R,return,6.912203300002147,None,space,1,0.5147233000025153,0.14458959999319632,,,,,,0,0,0,0,0,0,0,1,0,35,35,15,42.95103640000161,,,,,,,,,,,,,,42.93623700000171,42.95103640000161,42.95103640000161,43.45115209999494,43.95105570000305,43.93440630000259,space,1,0.5147233000025153,0.14458959999319632,,,,,,,,,,,,,9,001,2026-04-10_15h17.45.375,0back,,2025.1.1,60.24833157201229,2026-04-10 15h17.54.430402 +0200,
36,36,0,R,I,return,6.912203300002147,None,None,0,,,,,,,,0,0,0,0,0,0,0,1,0,36,36,44,43.95105570000305,,,,,,,,,,,,,,43.935639200004516,43.95105570000305,43.95105570000305,44.45108440000331,44.95112670000526,44.934545099997194,None,0,,,,,,,,,,,,,,,9,001,2026-04-10_15h17.45.375,0back,,2025.1.1,60.24833157201229,2026-04-10 15h17.54.430402 +0200,
37,37,0,R,A,return,6.912203300002147,None,None,0,,,,,,,,0,0,0,0,0,0,0,1,0,37,37,36,44.95112670000526,,,,,,,,,,,,,,44.935739499997,44.95112670000526,44.95112670000526,45.45101710000017,45.951273800004856,45.93483430000197,None,0,,,,,,,,,,,,,,,9,001,2026-04-10_15h17.45.375,0back,,2025.1.1,60.24833157201229,2026-04-10 15h17.54.430402 +0200,
38,38,0,R,R,return,6.912203300002147,None,space,1,0.5059534000029089,0.10426140000345185,,,,,,0,0,0,0,0,0,0,1,0,38,38,17,45.951273800004856,,,,,,,,,,,,,,45.93722740000521,45.951273800004856,45.951273800004856,46.45112490000611,46.95109400000365,46.9343394000025,space,1,0.5059534000029089,0.10426140000345185,,,,,,,,,,,,,9,001,2026-04-10_15h17.45.375,0back,,2025.1.1,60.24833157201229,2026-04-10 15h17.54.430402 +0200,
39,39,0,R,R,return,6.912203300002147,None,space,1,0.498140700001386,0.120204199993168,,,,,,0,0,0,0,0,0,0,1,0,39,39,14,46.95109400000365,,,,,,,,,,,,,,46.93515930000285,46.95109400000365,46.95109400000365,47.45122760000231,47.95113780000247,47.93440899999405,space,1,0.498140700001386,0.120204199993168,,,,,,,,,,,,,9,001,2026-04-10_15h17.45.375,0back,,2025.1.1,60.24833157201229,2026-04-10 15h17.54.430402 +0200,
40,40,0,R,N,return,6.912203300002147,None,None,0,,,,,,,,0,0,0,0,0,0,0,1,0,40,40,25,47.95113780000247,,,,,,,,,,,,,,47.935591600005864,47.95113780000247,47.95113780000247,48.451164800004335,48.9515803999966,48.934416999996756,None,0,,,,,,,,,,,,,,,9,001,2026-04-10_15h17.45.375,0back,,2025.1.1,60.24833157201229,2026-04-10 15h17.54.430402 +0200,
41,41,0,R,R,return,6.912203300002147,None,space,1,0.4896685000130674,0.12796299999172334,,,,,,0,0,0,0,0,0,0,1,0,41,41,10,48.9515803999966,,,,,,,,,,,,,,48.936553100007586,48.9515803999966,48.9515803999966,49.45106930000475,49.951144100006786,49.93446489999769,space,1,0.4896685000130674,0.12796299999172334,,,,,,,,,,,,,9,001,2026-04-10_15h17.45.375,0back,,2025.1.1,60.24833157201229,2026-04-10 15h17.54.430402 +0200,
42,42,0,R,R,return,6.912203300002147,None,space,1,0.5621303999942029,0.14352480000525247,,,,,,0,0,0,0,0,0,0,1,0,42,42,13,49.951144100006786,,,,,,,,,,,,,,49.93566940000164,49.951144100006786,49.951144100006786,50.45119989999512,50.95147899999574,50.93450930000108,space,1,0.5621303999942029,0.14352480000525247,,,,,,,,,,,,,9,001,2026-04-10_15h17.45.375,0back,,2025.1.1,60.24833157201229,2026-04-10 15h17.54.430402 +0200,
43,43,0,R,M,return,6.912203300002147,None,None,0,,,,,,,,0,0,0,0,0,0,0,1,0,43,43,1,50.95147899999574,,,,,,,,,,,,,,50.935759300002246,50.95147899999574,50.95147899999574,51.45104580000043,51.951138200005516,51.93448460000218,None,0,,,,,,,,,,,,,,,9,001,2026-04-10_15h17.45.375,0back,,2025.1.1,60.24833157201229,2026-04-10 15h17.54.430402 +0200,
44,44,0,R,M,return,6.912203300002147,None,None,0,,,,,,,,0,0,0,0,0,0,0,1,0,44,44,3,51.951138200005516,,,,,,,,,,,,,,51.934609699994326,51.951138200005516,51.951138200005516,52.45116880000569,52.9511050000001,52.934364999993704,None,0,,,,,,,,,,,,,,,9,001,2026-04-10_15h17.45.375,0back,,2025.1.1,60.24833157201229,2026-04-10 15h17.54.430402 +0200,
45,45,0,R,Y,return,6.912203300002147,None,None,0,,,,,,,,0,0,0,0,0,0,0,1,0,45,45,42,52.9511050000001,,,,,,,,,,,,,,52.937116300003254,52.9511050000001,52.9511050000001,53.45148390000395,53.9511222000001,53.93434390000766,None,0,,,,,,,,,,,,,,,9,001,2026-04-10_15h17.45.375,0back,,2025.1.1,60.24833157201229,2026-04-10 15h17.54.430402 +0200,
46,46,0,R,M,return,6.912203300002147,None,None,0,,,,,,,,0,0,0,0,0,0,0,1,0,46,46,7,53.9511222000001,,,,,,,,,,,,,,53.93559579999419,53.9511222000001,53.9511222000001,54.45115540000552,54.95111330000509,54.934434599999804,None,0,,,,,,,,,,,,,,,9,001,2026-04-10_15h17.45.375,0back,,2025.1.1,60.24833157201229,2026-04-10 15h17.54.430402 +0200,
47,47,0,R,D,return,6.912203300002147,None,None,0,,,,,,,,0,0,0,0,0,0,0,1,0,47,47,48,54.95111330000509,,,,,,,,,,,,,,54.93745539999509,54.95111330000509,54.95111330000509,55.45110790000763,55.951152299996465,55.934760000003735,None,0,,,,,,,,,,,,,,,9,001,2026-04-10_15h17.45.375,0back,,2025.1.1,60.24833157201229,2026-04-10 15h17.54.430402 +0200,
48,48,0,R,A,return,6.912203300002147,None,None,0,,,,,,,,0,0,0,0,0,0,0,1,0,48,48,35,55.951152299996465,,,,,,,,,,,,,,55.93693359999452,55.951152299996465,55.951152299996465,56.45114130000002,56.95109250000678,56.93435140000656,None,0,,,,,,,,,,,,,,,9,001,2026-04-10_15h17.45.375,0back,,2025.1.1,60.24833157201229,2026-04-10 15h17.54.430402 +0200,
49,49,0,R,A,return,6.912203300002147,None,None,0,,,,,,,,0,0,0,0,0,0,0,1,0,49,49,33,56.95109250000678,,,,,,,,,,,,,,56.934471700005815,56.95109250000678,56.95109250000678,57.45112270000391,57.95142300000589,57.93447880000167,None,0,,,,,,,,,,,,,,,9,001,2026-04-10_15h17.45.375,0back,,2025.1.1,60.24833157201229,2026-04-10 15h17.54.430402 +0200,
0,0,0,R,,return,6.912203300002147,None,,,,,,,,,,0,0,0,0,0,0,0,1,,,,,,,,,,,,,,,,,,,,,,,,,,,,,,,,,,,,,,,,,9,001,2026-04-10_15h17.45.375,0back,,2025.1.1,60.24833157201229,2026-04-10 15h17.54.430402 +0200,
0,0,0,N,C,return,2.458138499991037,None,None,0,,,,,,,,0,0,0,0,0,1,1,3,0,0,0,49,60.434278999993694,,,,,57.94042929999705,57.95142300000589,57.95142300000589,57.95142300000589,57.95142300000589,60.418150600002264,return,2.458138499991037,None,60.42408830000204,60.434278999993694,60.434278999993694,60.93426439999894,61.434277499996824,61.4179398999986,None,0,,,,,,,,,,,,,,,9,001,2026-04-10_15h17.45.375,0back,,2025.1.1,60.24833157201229,2026-04-10 15h17.54.430402 +0200,
1,1,0,N,R,return,2.458138499991037,None,None,0,,,,,,,,0,0,0,0,0,1,1,3,0,1,1,13,61.434277499996824,,,,,,,,,,,,,,61.419087600006605,61.434277499996824,61.434277499996824,61.93427040000097,62.4343200000003,62.418068500002846,None,0,,,,,,,,,,,,,,,9,001,2026-04-10_15h17.45.375,0back,,2025.1.1,60.24833157201229,2026-04-10 15h17.54.430402 +0200,
2,2,0,N,R,return,2.458138499991037,None,None,0,,,,,,,,0,0,0,0,0,1,1,3,0,2,2,18,62.4343200000003,,,,,,,,,,,,,,62.41845409999951,62.4343200000003,62.4343200000003,62.93428370000038,63.43429429999378,63.41806379999616,None,0,,,,,,,,,,,,,,,9,001,2026-04-10_15h17.45.375,0back,,2025.1.1,60.24833157201229,2026-04-10 15h17.54.430402 +0200,
3,3,0,N,A,return,2.458138499991037,None,None,0,,,,,,,,0,0,0,0,0,1,1,3,0,3,3,35,63.43429429999378,,,,,,,,,,,,,,63.4195624999993,63.43429429999378,63.43429429999378,63.93421859999944,64.43432650000614,64.41814160000649,None,0,,,,,,,,,,,,,,,9,001,2026-04-10_15h17.45.375,0back,,2025.1.1,60.24833157201229,2026-04-10 15h17.54.430402 +0200,
4,4,0,N,R,return,2.458138499991037,None,None,0,,,,,,,,0,0,0,0,0,1,1,3,0,4,4,9,64.43432650000614,,,,,,,,,,,,,,64.41932929999894,64.43432650000614,64.43432650000614,64.93423080000503,65.43434180000622,65.41818639999838,None,0,,,,,,,,,,,,,,,9,001,2026-04-10_15h17.45.375,0back,,2025.1.1,60.24833157201229,2026-04-10 15h17.54.430402 +0200,
5,5,0,N,M,return,2.458138499991037,None,None,0,,,,,,,,0,0,0,0,0,1,1,3,0,5,5,8,65.43434180000622,,,,,,,,,,,,,,65.41948389999743,65.43434180000622,65.43434180000622,65.93431789999886,66.43434940000589,66.41799210000318,None,0,,,,,,,,,,,,,,,9,001,2026-04-10_15h17.45.375,0back,,2025.1.1,60.24833157201229,2026-04-10 15h17.54.430402 +0200,
6,6,0,N,N,return,2.458138499991037,None,space,1,0.7511439000081737,0.13718049999442883,,,,,,0,0,0,0,0,1,1,3,0,6,6,21,66.43434940000589,,,,,,,,,,,,,,66.41996670000663,66.43434940000589,66.43434940000589,66.93429610000749,67.43431759999658,67.41801189999387,space,1,0.7511439000081737,0.13718049999442883,,,,,,,,,,,,,9,001,2026-04-10_15h17.45.375,0back,,2025.1.1,60.24833157201229,2026-04-10 15h17.54.430402 +0200,
7,7,0,N,M,return,2.458138499991037,None,None,0,,,,,,,,0,0,0,0,0,1,1,3,0,7,7,2,67.43431759999658,,,,,,,,,,,,,,67.41916489999858,67.43431759999658,67.43431759999658,67.93441529999836,68.43422229999851,68.41805409999506,None,0,,,,,,,,,,,,,,,9,001,2026-04-10_15h17.45.375,0back,,2025.1.1,60.24833157201229,2026-04-10 15h17.54.430402 +0200,
8,8,0,N,A,return,2.458138499991037,None,None,0,,,,,,,,0,0,0,0,0,1,1,3,0,8,8,34,68.43422229999851,,,,,,,,,,,,,,68.41920930000197,68.43422229999851,68.43422229999851,68.9344068000064,,69.41864580000401,None,0,,,,,,,,,,,,,,,9,001,2026-04-10_15h17.45.375,0back,,2025.1.1,60.24833157201229,2026-04-10 15h17.54.430402 +0200,
9,9,0,N,M,return,2.458138499991037,None,None,0,,,,,,,,0,0,0,0,0,1,1,3,0,9,9,3,69.43442990000767,,,,,,,,,,,,,,69.41996389999986,69.43442990000767,69.43442990000767,69.93441060000623,70.4343566000025,70.417944300003,None,0,,,,,,,,,,,,,,,9,001,2026-04-10_15h17.45.375,0back,,2025.1.1,60.24833157201229,2026-04-10 15h17.54.430402 +0200,
10,10,0,N,A,return,2.458138499991037,None,None,0,,,,,,,,0,0,0,0,0,1,1,3,0,10,10,37,70.4343566000025,,,,,,,,,,,,,,70.41913609999756,70.4343566000025,70.4343566000025,70.93438049999531,71.43428270000732,71.41792110000097,None,0,,,,,,,,,,,,,,,9,001,2026-04-10_15h17.45.375,0back,,2025.1.1,60.24833157201229,2026-04-10 15h17.54.430402 +0200,
11,11,0,N,N,return,2.458138499991037,None,space,1,0.5668759999971371,0.14426370000001043,,,,,,0,0,0,0,0,1,1,3,0,11,11,19,71.43428270000732,,,,,,,,,,,,,,71.41979620000347,71.43428270000732,71.43428270000732,71.93434839999827,72.43425069999648,72.41810059999989,space,1,0.5668759999971371,0.14426370000001043,,,,,,,,,,,,,9,001,2026-04-10_15h17.45.375,0back,,2025.1.1,60.24833157201229,2026-04-10 15h17.54.430402 +0200,
12,12,0,N,N,return,2.458138499991037,None,space,1,0.5206941000069492,0.11031209999055136,,,,,,0,0,0,0,0,1,1,3,0,12,12,24,72.43425069999648,,,,,,,,,,,,,,72.41932919999817,72.43425069999648,72.43425069999648,72.93426799999725,73.43425639999623,73.41795529999945,space,1,0.5206941000069492,0.11031209999055136,,,,,,,,,,,,,9,001,2026-04-10_15h17.45.375,0back,,2025.1.1,60.24833157201229,2026-04-10 15h17.54.430402 +0200,
13,13,0,N,R,return,2.458138499991037,None,None,0,,,,,,,,0,0,0,0,0,1,1,3,0,13,13,17,73.43425639999623,,,,,,,,,,,,,,73.41913419999764,73.43425639999623,73.43425639999623,73.93474769999739,74.4343521999981,74.41804580000462,None,0,,,,,,,,,,,,,,,9,001,2026-04-10_15h17.45.375,0back,,2025.1.1,60.24833157201229,2026-04-10 15h17.54.430402 +0200,
14,14,0,N,A,return,2.458138499991037,None,None,0,,,,,,,,0,0,0,0,0,1,1,3,0,14,14,29,74.4343521999981,,,,,,,,,,,,,,74.41922949999571,74.4343521999981,74.4343521999981,74.93432820000453,75.43437420000555,75.41805069999828,None,0,,,,,,,,,,,,,,,9,001,2026-04-10_15h17.45.375,0back,,2025.1.1,60.24833157201229,2026-04-10 15h17.54.430402 +0200,
15,15,0,N,E,return,2.458138499991037,None,None,0,,,,,,,,0,0,0,0,0,1,1,3,0,15,15,40,75.43437420000555,,,,,,,,,,,,,,75.41944470000453,75.43437420000555,75.43437420000555,75.9342997000058,76.43436389999988,76.41799070000707,None,0,,,,,,,,,,,,,,,9,001,2026-04-10_15h17.45.375,0back,,2025.1.1,60.24833157201229,2026-04-10 15h17.54.430402 +0200,
16,16,0,N,A,return,2.458138499991037,None,None,0,,,,,,,,0,0,0,0,0,1,1,3,0,16,16,36,76.43436389999988,,,,,,,,,,,,,,76.41912869999942,76.43436389999988,76.43436389999988,76.93437699999777,77.43433699999878,77.41800590000639,None,0,,,,,,,,,,,,,,,9,001,2026-04-10_15h17.45.375,0back,,2025.1.1,60.24833157201229,2026-04-10 15h17.54.430402 +0200,
17,17,0,N,N,return,2.458138499991037,None,space,1,0.5669344000052661,0.13634109999111388,,,,,,0,0,0,0,0,1,1,3,0,17,17,27,77.43433699999878,,,,,,,,,,,,,,77.41995120000502,77.43433699999878,77.43433699999878,77.93440199999895,78.43442780000623,78.41809079999803,space,1,0.5669344000052661,0.13634109999111388,,,,,,,,,,,,,9,001,2026-04-10_15h17.45.375,0back,,2025.1.1,60.24833157201229,2026-04-10 15h17.54.430402 +0200,
18,18,0,N,O,return,2.458138499991037,None,None,0,,,,,,,,0,0,0,0,0,1,1,3,0,18,18,45,78.43442780000623,,,,,,,,,,,,,,78.41929429999436,78.43442780000623,78.43442780000623,78.9343125000014,,79.4188742999977,None,0,,,,,,,,,,,,,,,9,001,2026-04-10_15h17.45.375,0back,,2025.1.1,60.24833157201229,2026-04-10 15h17.54.430402 +0200,
19,19,0,N,T,return,2.458138499991037,None,None,0,,,,,,,,0,0,0,0,0,1,1,3,0,19,19,41,79.43442449999566,,,,,,,,,,,,,,79.42050340000424,79.43442449999566,79.43442449999566,79.93440929999633,80.43428950000089,80.4179024000041,None,0,,,,,,,,,,,,,,,9,001,2026-04-10_15h17.45.375,0back,,2025.1.1,60.24833157201229,2026-04-10 15h17.54.430402 +0200,
20,20,0,N,Z,return,2.458138499991037,None,None,0,,,,,,,,0,0,0,0,0,1,1,3,0,20,20,39,80.43428950000089,,,,,,,,,,,,,,80.41912570000568,80.43428950000089,80.43428950000089,80.93446839999524,81.43484070000704,81.41809079999803,None,0,,,,,,,,,,,,,,,9,001,2026-04-10_15h17.45.375,0back,,2025.1.1,60.24833157201229,2026-04-10 15h17.54.430402 +0200,
21,21,0,N,N,return,2.458138499991037,None,space,1,0.5985150999913458,0.14413050000439398,,,,,,0,0,0,0,0,1,1,3,0,21,21,20,81.43484070000704,,,,,,,,,,,,,,81.41986389999511,81.43484070000704,81.43484070000704,81.93428099999437,82.434342499997,82.41810819999955,space,1,0.5985150999913458,0.14413050000439398,,,,,,,,,,,,,9,001,2026-04-10_15h17.45.375,0back,,2025.1.1,60.24833157201229,2026-04-10 15h17.54.430402 +0200,
22,22,0,N,M,return,2.458138499991037,None,None,0,,,,,,,,0,0,0,0,0,1,1,3,0,22,22,5,82.434342499997,,,,,,,,,,,,,,82.41925330000231,82.434342499997,82.434342499997,82.93435070000123,83.4343874000042,83.41788500000257,None,0,,,,,,,,,,,,,,,9,001,2026-04-10_15h17.45.375,0back,,2025.1.1,60.24833157201229,2026-04-10 15h17.54.430402 +0200,
23,23,0,N,M,return,2.458138499991037,None,None,0,,,,,,,,0,0,0,0,0,1,1,3,0,23,23,0,83.4343874000042,,,,,,,,,,,,,,83.41801019999548,83.4343874000042,83.4343874000042,83.93437630000699,84.43437000000267,84.418101999996,None,0,,,,,,,,,,,,,,,9,001,2026-04-10_15h17.45.375,0back,,2025.1.1,60.24833157201229,2026-04-10 15h17.54.430402 +0200,
24,24,0,N,R,return,2.458138499991037,None,None,0,,,,,,,,0,0,0,0,0,1,1,3,0,24,24,16,84.43437000000267,,,,,,,,,,,,,,84.41947239999718,84.43437000000267,84.43437000000267,84.93440889999329,85.43436689999362,85.41796520000207,None,0,,,,,,,,,,,,,,,9,001,2026-04-10_15h17.45.375,0back,,2025.1.1,60.24833157201229,2026-04-10 15h17.54.430402 +0200,
25,25,0,N,R,return,2.458138499991037,None,None,0,,,,,,,,0,0,0,0,0,1,1,3,0,25,25,12,85.43436689999362,,,,,,,,,,,,,,85.41809880000073,85.43436689999362,85.43436689999362,85.93428420000419,86.43428539999877,86.41791649999504,None,0,,,,,,,,,,,,,,,9,001,2026-04-10_15h17.45.375,0back,,2025.1.1,60.24833157201229,2026-04-10 15h17.54.430402 +0200,
26,26,0,N,M,return,2.458138499991037,None,None,0,,,,,,,,0,0,0,0,0,1,1,3,0,26,26,7,86.43428539999877,,,,,,,,,,,,,,86.41905090000364,86.43428539999877,86.43428539999877,86.9343785999954,87.43430530000478,87.41784819999884,None,0,,,,,,,,,,,,,,,9,001,2026-04-10_15h17.45.375,0back,,2025.1.1,60.24833157201229,2026-04-10 15h17.54.430402 +0200,
27,27,0,N,D,return,2.458138499991037,None,None,0,,,,,,,,0,0,0,0,0,1,1,3,0,27,27,48,87.43430530000478,,,,,,,,,,,,,,87.41906729999755,87.43430530000478,87.43430530000478,87.93431209999835,88.43428950000089,88.41818059999787,None,0,,,,,,,,,,,,,,,9,001,2026-04-10_15h17.45.375,0back,,2025.1.1,60.24833157201229,2026-04-10 15h17.54.430402 +0200,
28,28,0,N,P,return,2.458138499991037,None,None,0,,,,,,,,0,0,0,0,0,1,1,3,0,28,28,46,88.43428950000089,,,,,,,,,,,,,,88.41938380000647,88.43428950000089,88.43428950000089,88.93442859999777,89.43501050000486,89.41799079999328,None,0,,,,,,,,,,,,,,,9,001,2026-04-10_15h17.45.375,0back,,2025.1.1,60.24833157201229,2026-04-10 15h17.54.430402 +0200,
29,29,0,N,N,return,2.458138499991037,None,space,1,0.5423432999959914,0.1357683999958681,,,,,,0,0,0,0,0,1,1,3,0,29,29,26,89.43501050000486,,,,,,,,,,,,,,89.4198114000028,89.43501050000486,89.43501050000486,89.9344032999943,90.4344398999965,90.41802989999996,space,1,0.5423432999959914,0.1357683999958681,,,,,,,,,,,,,9,001,2026-04-10_15h17.45.375,0back,,2025.1.1,60.24833157201229,2026-04-10 15h17.54.430402 +0200,
30,30,0,N,M,return,2.458138499991037,None,None,0,,,,,,,,0,0,0,0,0,1,1,3,0,30,30,6,90.4344398999965,,,,,,,,,,,,,,90.41922890000569,90.4344398999965,90.4344398999965,90.93420479999622,91.43428950000089,91.41803030000301,None,0,,,,,,,,,,,,,,,9,001,2026-04-10_15h17.45.375,0back,,2025.1.1,60.24833157201229,2026-04-10 15h17.54.430402 +0200,
31,31,0,N,A,return,2.458138499991037,None,None,0,,,,,,,,0,0,0,0,0,1,1,3,0,31,31,30,91.43428950000089,,,,,,,,,,,,,,91.41929649999656,91.43428950000089,91.43428950000089,91.93432810000377,92.43425289999868,92.41816929999914,None,0,,,,,,,,,,,,,,,9,001,2026-04-10_15h17.45.375,0back,,2025.1.1,60.24833157201229,2026-04-10 15h17.54.430402 +0200,
32,32,0,N,M,return,2.458138499991037,None,None,0,,,,,,,,0,0,0,0,0,1,1,3,0,32,32,4,92.43425289999868,,,,,,,,,,,,,,92.41962929999863,92.43425289999868,92.43425289999868,92.93438320000132,93.4347940000007,93.41787869999825,None,0,,,,,,,,,,,,,,,9,001,2026-04-10_15h17.45.375,0back,,2025.1.1,60.24833157201229,2026-04-10 15h17.54.430402 +0200,
33,33,0,N,N,return,2.458138499991037,None,space,1,0.5183733999874676,0.13613890000851825,,,,,,0,0,0,0,0,1,1,3,0,33,33,23,93.4347940000007,,,,,,,,,,,,,,93.4198383000039,93.4347940000007,93.4347940000007,93.93437839999388,94.43439730000682,94.41806480000378,space,1,0.5183733999874676,0.13613890000851825,,,,,,,,,,,,,9,001,2026-04-10_15h17.45.375,0back,,2025.1.1,60.24833157201229,2026-04-10 15h17.54.430402 +0200,
34,34,0,N,A,return,2.458138499991037,None,None,0,,,,,,,,0,0,0,0,0,1,1,3,0,34,34,33,94.43439730000682,,,,,,,,,,,,,,94.41919570000027,94.43439730000682,94.43439730000682,94.93432119999488,95.43435799999861,95.41793530000723,None,0,,,,,,,,,,,,,,,9,001,2026-04-10_15h17.45.375,0back,,2025.1.1,60.24833157201229,2026-04-10 15h17.54.430402 +0200,
35,35,0,N,M,return,2.458138499991037,None,None,0,,,,,,,,0,0,0,0,0,1,1,3,0,35,35,1,95.43435799999861,,,,,,,,,,,,,,95.4190884999989,95.43435799999861,95.43435799999861,95.93430510000326,96.43446109999786,96.4180284000031,None,0,,,,,,,,,,,,,,,9,001,2026-04-10_15h17.45.375,0back,,2025.1.1,60.24833157201229,2026-04-10 15h17.54.430402 +0200,
36,36,0,N,R,return,2.458138499991037,None,None,0,,,,,,,,0,0,0,0,0,1,1,3,0,36,36,14,96.43446109999786,,,,,,,,,,,,,,96.42003609999665,96.43446109999786,96.43446109999786,96.93434239999624,97.43438089999836,97.41794719999598,None,0,,,,,,,,,,,,,,,9,001,2026-04-10_15h17.45.375,0back,,2025.1.1,60.24833157201229,2026-04-10 15h17.54.430402 +0200,
37,37,0,N,N,return,2.458138499991037,None,space,1,0.5039804999978514,0.143444700006512,,,,,,0,0,0,0,0,1,1,3,0,37,37,28,97.43438089999836,,,,,,,,,,,,,,97.42006720000063,97.43438089999836,97.43438089999836,97.93432179999945,98.43429600000673,98.4178557999985,space,1,0.5039804999978514,0.143444700006512,,,,,,,,,,,,,9,001,2026-04-10_15h17.45.375,0back,,2025.1.1,60.24833157201229,2026-04-10 15h17.54.430402 +0200,
38,38,0,N,U,return,2.458138499991037,None,None,0,,,,,,,,0,0,0,0,0,1,1,3,0,38,38,43,98.43429600000673,,,,,,,,,,,,,,98.41908089999924,98.43429600000673,98.43429600000673,98.9345844000054,99.4343324000074,99.41788819999783,None,0,,,,,,,,,,,,,,,9,001,2026-04-10_15h17.45.375,0back,,2025.1.1,60.24833157201229,2026-04-10 15h17.54.430402 +0200,
39,39,0,N,I,return,2.458138499991037,None,None,0,,,,,,,,0,0,0,0,0,1,1,3,0,39,39,44,99.4343324000074,,,,,,,,,,,,,,99.41912799999409,99.4343324000074,99.4343324000074,99.93445210000209,100.43437030000496,100.4179104000068,None,0,,,,,,,,,,,,,,,9,001,2026-04-10_15h17.45.375,0back,,2025.1.1,60.24833157201229,2026-04-10 15h17.54.430402 +0200,
40,40,0,N,A,return,2.458138499991037,None,None,0,,,,,,,,0,0,0,0,0,1,1,3,0,40,40,32,100.43437030000496,,,,,,,,,,,,,,100.41905339999357,100.43437030000496,100.43437030000496,100.9344637000031,101.43432289999328,101.41789330000756,None,0,,,,,,,,,,,,,,,9,001,2026-04-10_15h17.45.375,0back,,2025.1.1,60.24833157201229,2026-04-10 15h17.54.430402 +0200,
41,41,0,N,A,return,2.458138499991037,None,None,0,,,,,,,,0,0,0,0,0,1,1,3,0,41,41,31,101.43432289999328,,,,,,,,,,,,,,101.41801769999438,101.43432289999328,101.43432289999328,101.93436199999996,102.43438170000445,102.41791590000503,None,0,,,,,,,,,,,,,,,9,001,2026-04-10_15h17.45.375,0back,,2025.1.1,60.24833157201229,2026-04-10 15h17.54.430402 +0200,
42,42,0,N,N,return,2.458138499991037,None,space,1,0.7435679000045639,0.12162999999418389,,,,,,0,0,0,0,0,1,1,3,0,42,42,25,102.43438170000445,,,,,,,,,,,,,,102.41987830000289,102.43438170000445,102.43438170000445,102.93442210000649,103.43448720000742,103.41795309999725,space,1,0.7435679000045639,0.12162999999418389,,,,,,,,,,,,,9,001,2026-04-10_15h17.45.375,0back,,2025.1.1,60.24833157201229,2026-04-10 15h17.54.430402 +0200,
43,43,0,N,R,return,2.458138499991037,None,None,0,,,,,,,,0,0,0,0,0,1,1,3,0,43,43,10,103.43448720000742,,,,,,,,,,,,,,103.41927349999605,103.43448720000742,103.43448720000742,103.93426379999437,104.43424960000266,104.4179690000019,None,0,,,,,,,,,,,,,,,9,001,2026-04-10_15h17.45.375,0back,,2025.1.1,60.24833157201229,2026-04-10 15h17.54.430402 +0200,
44,44,0,N,Y,return,2.458138499991037,None,None,0,,,,,,,,0,0,0,0,0,1,1,3,0,44,44,42,104.43424960000266,,,,,,,,,,,,,,104.41915220000374,104.43424960000266,104.43424960000266,104.93431419999979,105.43434140000318,105.41793809999945,None,0,,,,,,,,,,,,,,,9,001,2026-04-10_15h17.45.375,0back,,2025.1.1,60.24833157201229,2026-04-10 15h17.54.430402 +0200,
45,45,0,N,R,return,2.458138499991037,None,None,0,,,,,,,,0,0,0,0,0,1,1,3,0,45,45,11,105.43434140000318,,,,,,,,,,,,,,105.41914389999874,105.43434140000318,105.43434140000318,105.93434170000546,106.43432679999387,106.41793830000097,None,0,,,,,,,,,,,,,,,9,001,2026-04-10_15h17.45.375,0back,,2025.1.1,60.24833157201229,2026-04-10 15h17.54.430402 +0200,
46,46,0,N,Q,return,2.458138499991037,None,None,0,,,,,,,,0,0,0,0,0,1,1,3,0,46,46,47,106.43432679999387,,,,,,,,,,,,,,106.41913710000517,106.43432679999387,106.43432679999387,106.93438580000657,107.43436010000005,107.41783849999774,None,0,,,,,,,,,,,,,,,9,001,2026-04-10_15h17.45.375,0back,,2025.1.1,60.24833157201229,2026-04-10 15h17.54.430402 +0200,
47,47,0,N,R,return,2.458138499991037,None,None,0,,,,,,,,0,0,0,0,0,1,1,3,0,47,47,15,107.43436010000005,,,,,,,,,,,,,,107.4190363999951,107.43436010000005,107.43436010000005,107.93440610000107,108.43444799999997,108.41793100000359,None,0,,,,,,,,,,,,,,,9,001,2026-04-10_15h17.45.375,0back,,2025.1.1,60.24833157201229,2026-04-10 15h17.54.430402 +0200,
48,48,0,N,A,return,2.458138499991037,None,None,0,,,,,,,,0,0,0,0,0,1,1,3,0,48,48,38,108.43444799999997,,,,,,,,,,,,,,108.41931890000706,108.43444799999997,108.43444799999997,108.93432289999328,109.43449519999558,109.41819090000354,None,0,,,,,,,,,,,,,,,9,001,2026-04-10_15h17.45.375,0back,,2025.1.1,60.24833157201229,2026-04-10 15h17.54.430402 +0200,
49,49,0,N,N,return,2.458138499991037,None,space,1,0.44763730000704527,0.14413149999745656,,,,,,0,0,0,0,0,1,1,3,0,49,49,22,109.43449519999558,,,,,,,,,,,,,,109.42033409999567,109.43449519999558,109.43449519999558,109.93432780000148,110.43441790000361,110.4178918999969,space,1,0.44763730000704527,0.14413149999745656,,,,,,,,,,,,,9,001,2026-04-10_15h17.45.375,0back,,2025.1.1,60.24833157201229,2026-04-10 15h17.54.430402 +0200,
1,1,0,N,,return,2.458138499991037,None,,,,,,,,,,0,0,0,0,0,1,1,3,,,,,,,,,,,,,,,,,,,,,,,,,,,,,,,,,,,,,,,,,9,001,2026-04-10_15h17.45.375,0back,,2025.1.1,60.24833157201229,2026-04-10 15h17.54.430402 +0200,
0,0,0,M,R,return,1.3754484000091907,None,None,0,,,,,,,,0,0,0,0,0,2,2,0,0,0,0,11,111.83432170000742,,,,,110.42370139999548,110.43441790000361,110.43441790000361,110.43441790000361,110.43441790000361,111.81815419999475,return,1.3754484000091907,None,111.82430190000741,111.83432170000742,111.83432170000742,112.33427370000572,112.83443600000464,112.81808450000244,None,0,,,,,,,,,,,,,,,9,001,2026-04-10_15h17.45.375,0back,,2025.1.1,60.24833157201229,2026-04-10 15h17.54.430402 +0200,
1,1,0,M,R,return,1.3754484000091907,None,None,0,,,,,,,,0,0,0,0,0,2,2,0,0,1,1,13,112.83443600000464,,,,,,,,,,,,,,112.81835529999807,112.83443600000464,112.83443600000464,113.33441250000033,113.83434980000311,113.81792089999362,None,0,,,,,,,,,,,,,,,9,001,2026-04-10_15h17.45.375,0back,,2025.1.1,60.24833157201229,2026-04-10 15h17.54.430402 +0200,
2,2,0,M,N,return,1.3754484000091907,None,None,0,,,,,,,,0,0,0,0,0,2,2,0,0,2,2,22,113.83434980000311,,,,,,,,,,,,,,113.81909160000214,113.83434980000311,113.83434980000311,114.3343695000076,114.83433240000159,114.81817769999907,None,0,,,,,,,,,,,,,,,9,001,2026-04-10_15h17.45.375,0back,,2025.1.1,60.24833157201229,2026-04-10 15h17.54.430402 +0200,
3,3,0,M,M,return,1.3754484000091907,None,space,1,0.40752760000759736,0.12023669999325648,,,,,,0,0,0,0,0,2,2,0,0,3,3,3,114.83433240000159,,,,,,,,,,,,,,114.82204250000359,114.83433240000159,114.83433240000159,115.3343223999982,115.83441209999728,115.81795450000209,space,1,0.40752760000759736,0.12023669999325648,,,,,,,,,,,,,9,001,2026-04-10_15h17.45.375,0back,,2025.1.1,60.24833157201229,2026-04-10 15h17.54.430402 +0200,
4,4,0,M,U,return,1.3754484000091907,None,None,0,,,,,,,,0,0,0,0,0,2,2,0,0,4,4,43,115.83441209999728,,,,,,,,,,,,,,115.81918079999741,115.83441209999728,115.83441209999728,116.33432039999752,116.83431020000717,116.81802269999753,None,0,,,,,,,,,,,,,,,9,001,2026-04-10_15h17.45.375,0back,,2025.1.1,60.24833157201229,2026-04-10 15h17.54.430402 +0200,
5,5,0,M,T,return,1.3754484000091907,None,None,0,,,,,,,,0,0,0,0,0,2,2,0,0,5,5,41,116.83431020000717,,,,,,,,,,,,,,116.81913709999935,116.83431020000717,116.83431020000717,117.33440510000219,117.83442070000456,117.81798160000471,None,0,,,,,,,,,,,,,,,9,001,2026-04-10_15h17.45.375,0back,,2025.1.1,60.24833157201229,2026-04-10 15h17.54.430402 +0200,
6,6,0,M,N,return,1.3754484000091907,None,None,0,,,,,,,,0,0,0,0,0,2,2,0,0,6,6,27,117.83442070000456,,,,,,,,,,,,,,117.81932359999337,117.83442070000456,117.83442070000456,118.33431550000387,118.83461289999832,118.81803369999398,None,0,,,,,,,,,,,,,,,9,001,2026-04-10_15h17.45.375,0back,,2025.1.1,60.24833157201229,2026-04-10 15h17.54.430402 +0200,
7,7,0,M,M,return,1.3754484000091907,None,space,1,0.4391743000014685,0.1041512999945553,,,,,,0,0,0,0,0,2,2,0,0,7,7,5,118.83461289999832,,,,,,,,,,,,,,118.81993120000698,118.83461289999832,118.83461289999832,119.33432779999566,119.8343687000015,119.8179153999954,space,1,0.4391743000014685,0.1041512999945553,,,,,,,,,,,,,9,001,2026-04-10_15h17.45.375,0back,,2025.1.1,60.24833157201229,2026-04-10 15h17.54.430402 +0200,
8,8,0,M,N,return,1.3754484000091907,None,None,0,,,,,,,,0,0,0,0,0,2,2,0,0,8,8,24,119.8343687000015,,,,,,,,,,,,,,119.81918310000037,119.8343687000015,119.8343687000015,120.33433470000455,120.83436140000413,120.81803009999567,None,0,,,,,,,,,,,,,,,9,001,2026-04-10_15h17.45.375,0back,,2025.1.1,60.24833157201229,2026-04-10 15h17.54.430402 +0200,
9,9,0,M,A,return,1.3754484000091907,None,None,0,,,,,,,,0,0,0,0,0,2,2,0,0,9,9,32,120.83436140000413,,,,,,,,,,,,,,120.81926259999454,120.83436140000413,120.83436140000413,121.33437229999981,121.83436079999956,121.81806970000616,None,0,,,,,,,,,,,,,,,9,001,2026-04-10_15h17.45.375,0back,,2025.1.1,60.24833157201229,2026-04-10 15h17.54.430402 +0200,
10,10,0,M,D,return,1.3754484000091907,None,None,0,,,,,,,,0,0,0,0,0,2,2,0,0,10,10,48,121.83436079999956,,,,,,,,,,,,,,121.81954690000566,121.83436079999956,121.83436079999956,122.33436219999567,122.83441939999466,122.8179489000031,None,0,,,,,,,,,,,,,,,9,001,2026-04-10_15h17.45.375,0back,,2025.1.1,60.24833157201229,2026-04-10 15h17.54.430402 +0200,
11,11,0,M,P,return,1.3754484000091907,None,None,0,,,,,,,,0,0,0,0,0,2,2,0,0,11,11,46,122.83441939999466,,,,,,,,,,,,,,122.8191009000002,122.83441939999466,122.83441939999466,123.3343606999988,123.8344070000021,123.81797879999795,None,0,,,,,,,,,,,,,,,9,001,2026-04-10_15h17.45.375,0back,,2025.1.1,60.24833157201229,2026-04-10 15h17.54.430402 +0200,
12,12,0,M,A,return,1.3754484000091907,None,None,0,,,,,,,,0,0,0,0,0,2,2,0,0,12,12,34,123.8344070000021,,,,,,,,,,,,,,123.81915349999326,123.8344070000021,123.8344070000021,124.33433199999854,124.83423750000657,124.81786700000521,None,0,,,,,,,,,,,,,,,9,001,2026-04-10_15h17.45.375,0back,,2025.1.1,60.24833157201229,2026-04-10 15h17.54.430402 +0200,
13,13,0,M,M,return,1.3754484000091907,None,space,1,0.4552780999947572,0.10449939999671187,,,,,,0,0,0,0,0,2,2,0,0,13,13,0,124.83423750000657,,,,,,,,,,,,,,124.81954779999796,124.83423750000657,124.83423750000657,125.33431020000717,125.83433040000091,125.81795100000454,space,1,0.4552780999947572,0.10449939999671187,,,,,,,,,,,,,9,001,2026-04-10_15h17.45.375,0back,,2025.1.1,60.24833157201229,2026-04-10 15h17.54.430402 +0200,
14,14,0,M,Y,return,1.3754484000091907,None,None,0,,,,,,,,0,0,0,0,0,2,2,0,0,14,14,42,125.83433040000091,,,,,,,,,,,,,,125.81936490000226,125.83433040000091,125.83433040000091,126.33426499999769,126.83437070000218,126.81807280000066,None,0,,,,,,,,,,,,,,,9,001,2026-04-10_15h17.45.375,0back,,2025.1.1,60.24833157201229,2026-04-10 15h17.54.430402 +0200,
15,15,0,M,R,return,1.3754484000091907,None,None,0,,,,,,,,0,0,0,0,0,2,2,0,0,15,15,16,126.83437070000218,,,,,,,,,,,,,,126.8193220999965,126.83437070000218,126.83437070000218,127.33432049999828,127.83439610000642,127.81796400000167,None,0,,,,,,,,,,,,,,,9,001,2026-04-10_15h17.45.375,0back,,2025.1.1,60.24833157201229,2026-04-10 15h17.54.430402 +0200,
16,16,0,M,R,return,1.3754484000091907,None,None,0,,,,,,,,0,0,0,0,0,2,2,0,0,16,16,17,127.83439610000642,,,,,,,,,,,,,,127.81812490000448,127.83439610000642,127.83439610000642,128.3343093000003,128.8343148999993,128.81793449999532,None,0,,,,,,,,,,,,,,,9,001,2026-04-10_15h17.45.375,0back,,2025.1.1,60.24833157201229,2026-04-10 15h17.54.430402 +0200,
17,17,0,M,C,return,1.3754484000091907,None,None,0,,,,,,,,0,0,0,0,0,2,2,0,0,17,17,49,128.8343148999993,,,,,,,,,,,,,,128.81914740000502,128.8343148999993,128.8343148999993,129.33445789999678,129.8344231999945,129.81819890000043,None,0,,,,,,,,,,,,,,,9,001,2026-04-10_15h17.45.375,0back,,2025.1.1,60.24833157201229,2026-04-10 15h17.54.430402 +0200,
18,18,0,M,M,return,1.3754484000091907,None,space,1,0.495447499997681,0.11214329999347683,,,,,,0,0,0,0,0,2,2,0,0,18,18,1,129.8344231999945,,,,,,,,,,,,,,129.820246400006,129.8344231999945,129.8344231999945,130.33436589999474,130.83435330000066,130.8179739000043,space,1,0.495447499997681,0.11214329999347683,,,,,,,,,,,,,9,001,2026-04-10_15h17.45.375,0back,,2025.1.1,60.24833157201229,2026-04-10 15h17.54.430402 +0200,
19,19,0,M,M,return,1.3754484000091907,None,space,1,0.5509939000039594,0.12030110000341665,,,,,,0,0,0,0,0,2,2,0,0,19,19,7,130.83435330000066,,,,,,,,,,,,,,130.81875659999787,130.83435330000066,130.83435330000066,131.33426679999684,131.83452459999535,131.81789890000073,space,1,0.5509939000039594,0.12030110000341665,,,,,,,,,,,,,9,001,2026-04-10_15h17.45.375,0back,,2025.1.1,60.24833157201229,2026-04-10 15h17.54.430402 +0200,
20,20,0,M,N,return,1.3754484000091907,None,None,0,,,,,,,,0,0,0,0,0,2,2,0,0,20,20,26,131.83452459999535,,,,,,,,,,,,,,131.81961079999746,131.83452459999535,131.83452459999535,132.334614899999,132.83439210000506,132.8179528000037,None,0,,,,,,,,,,,,,,,9,001,2026-04-10_15h17.45.375,0back,,2025.1.1,60.24833157201229,2026-04-10 15h17.54.430402 +0200,
21,21,0,M,R,return,1.3754484000091907,None,None,0,,,,,,,,0,0,0,0,0,2,2,0,0,21,21,14,132.83439210000506,,,,,,,,,,,,,,132.81916480000655,132.83439210000506,132.83439210000506,133.33440940000582,133.83440930000506,133.8179100999987,None,0,,,,,,,,,,,,,,,9,001,2026-04-10_15h17.45.375,0back,,2025.1.1,60.24833157201229,2026-04-10 15h17.54.430402 +0200,
22,22,0,M,R,return,1.3754484000091907,None,None,0,,,,,,,,0,0,0,0,0,2,2,0,0,22,22,10,133.83440930000506,,,,,,,,,,,,,,133.81806780000625,133.83440930000506,133.83440930000506,134.3343892999983,134.83437660000345,134.81793380000454,None,0,,,,,,,,,,,,,,,9,001,2026-04-10_15h17.45.375,0back,,2025.1.1,60.24833157201229,2026-04-10 15h17.54.430402 +0200,
23,23,0,M,N,return,1.3754484000091907,None,None,0,,,,,,,,0,0,0,0,0,2,2,0,0,23,23,23,134.83437660000345,,,,,,,,,,,,,,134.81910659999994,134.83437660000345,134.83437660000345,135.33448629999475,135.83435119999922,135.81798370000615,None,0,,,,,,,,,,,,,,,9,001,2026-04-10_15h17.45.375,0back,,2025.1.1,60.24833157201229,2026-04-10 15h17.54.430402 +0200,
24,24,0,M,N,return,1.3754484000091907,None,None,0,,,,,,,,0,0,0,0,0,2,2,0,0,24,24,25,135.83435119999922,,,,,,,,,,,,,,135.81810990000668,135.83435119999922,135.83435119999922,136.33429569999862,136.83443020000414,136.81790559999354,None,0,,,,,,,,,,,,,,,9,001,2026-04-10_15h17.45.375,0back,,2025.1.1,60.24833157201229,2026-04-10 15h17.54.430402 +0200,
25,25,0,M,R,return,1.3754484000091907,None,None,0,,,,,,,,0,0,0,0,0,2,2,0,0,25,25,18,136.83443020000414,,,,,,,,,,,,,,136.8192687999981,136.83443020000414,136.83443020000414,137.33438169999863,137.83442179999838,137.817939200002,None,0,,,,,,,,,,,,,,,9,001,2026-04-10_15h17.45.375,0back,,2025.1.1,60.24833157201229,2026-04-10 15h17.54.430402 +0200,
26,26,0,M,R,return,1.3754484000091907,None,None,0,,,,,,,,0,0,0,0,0,2,2,0,0,26,26,9,137.83442179999838,,,,,,,,,,,,,,137.81806269999652,137.83442179999838,137.83442179999838,138.3343809999933,138.83450959999755,138.81790690000344,None,0,,,,,,,,,,,,,,,9,001,2026-04-10_15h17.45.375,0back,,2025.1.1,60.24833157201229,2026-04-10 15h17.54.430402 +0200,
27,27,0,M,M,return,1.3754484000091907,None,space,1,0.4722561999951722,0.10271730000386015,,,,,,0,0,0,0,0,2,2,0,0,27,27,8,138.83450959999755,,,,,,,,,,,,,,138.81963909999467,138.83450959999755,138.83450959999755,139.33430940000108,139.83434560000023,139.81796329999634,space,1,0.4722561999951722,0.10271730000386015,,,,,,,,,,,,,9,001,2026-04-10_15h17.45.375,0back,,2025.1.1,60.24833157201229,2026-04-10 15h17.54.430402 +0200,
28,28,0,M,A,return,1.3754484000091907,None,None,0,,,,,,,,0,0,0,0,0,2,2,0,0,28,28,37,139.83434560000023,,,,,,,,,,,,,,139.8191089000029,139.83434560000023,139.83434560000023,140.33428379999532,140.83439139999973,140.8179189000075,None,0,,,,,,,,,,,,,,,9,001,2026-04-10_15h17.45.375,0back,,2025.1.1,60.24833157201229,2026-04-10 15h17.54.430402 +0200,
29,29,0,M,Z,return,1.3754484000091907,None,None,0,,,,,,,,0,0,0,0,0,2,2,0,0,29,29,39,140.83439139999973,,,,,,,,,,,,,,140.81911579999723,140.83439139999973,140.83439139999973,141.3343620999949,141.8343376999983,141.81799179999507,None,0,,,,,,,,,,,,,,,9,001,2026-04-10_15h17.45.375,0back,,2025.1.1,60.24833157201229,2026-04-10 15h17.54.430402 +0200,
30,30,0,M,N,return,1.3754484000091907,None,None,0,,,,,,,,0,0,0,0,0,2,2,0,0,30,30,19,141.8343376999983,,,,,,,,,,,,,,141.81926800000656,141.8343376999983,141.8343376999983,142.33440930000506,142.83433670000522,142.81825919999392,None,0,,,,,,,,,,,,,,,9,001,2026-04-10_15h17.45.375,0back,,2025.1.1,60.24833157201229,2026-04-10 15h17.54.430402 +0200,
31,31,0,M,E,return,1.3754484000091907,None,None,0,,,,,,,,0,0,0,0,0,2,2,0,0,31,31,40,142.83433670000522,,,,,,,,,,,,,,142.8205392999953,142.83433670000522,142.83433670000522,143.3343337999977,143.83438470000692,143.81799670000328,None,0,,,,,,,,,,,,,,,9,001,2026-04-10_15h17.45.375,0back,,2025.1.1,60.24833157201229,2026-04-10 15h17.54.430402 +0200,
32,32,0,M,A,return,1.3754484000091907,None,None,0,,,,,,,,0,0,0,0,0,2,2,0,0,32,32,30,143.83438470000692,,,,,,,,,,,,,,143.8194652999955,143.83438470000692,143.83438470000692,144.3343995000032,144.8343637999933,144.81815589999314,None,0,,,,,,,,,,,,,,,9,001,2026-04-10_15h17.45.375,0back,,2025.1.1,60.24833157201229,2026-04-10 15h17.54.430402 +0200,
33,33,0,M,N,return,1.3754484000091907,None,None,0,,,,,,,,0,0,0,0,0,2,2,0,0,33,33,28,144.8343637999933,,,,,,,,,,,,,,144.81939449999481,144.8343637999933,144.8343637999933,145.33440520000295,145.83428080000158,145.8179567000043,None,0,,,,,,,,,,,,,,,9,001,2026-04-10_15h17.45.375,0back,,2025.1.1,60.24833157201229,2026-04-10 15h17.54.430402 +0200,
34,34,0,M,M,return,1.3754484000091907,None,space,1,0.46301179999136366,0.09597059999941848,,,,,,0,0,0,0,0,2,2,0,0,34,34,4,145.83428080000158,,,,,,,,,,,,,,145.8198992999969,145.83428080000158,145.83428080000158,146.3344250999944,146.83435800000734,146.8182453000045,space,1,0.46301179999136366,0.09597059999941848,,,,,,,,,,,,,9,001,2026-04-10_15h17.45.375,0back,,2025.1.1,60.24833157201229,2026-04-10 15h17.54.430402 +0200,
35,35,0,M,A,return,1.3754484000091907,None,None,0,,,,,,,,0,0,0,0,0,2,2,0,0,35,35,33,146.83435800000734,,,,,,,,,,,,,,146.81945120000455,146.83435800000734,146.83435800000734,147.33438210000168,147.83442830000422,147.81829140000627,None,0,,,,,,,,,,,,,,,9,001,2026-04-10_15h17.45.375,0back,,2025.1.1,60.24833157201229,2026-04-10 15h17.54.430402 +0200,
36,36,0,M,A,return,1.3754484000091907,None,None,0,,,,,,,,0,0,0,0,0,2,2,0,0,36,36,35,147.83442830000422,,,,,,,,,,,,,,147.81858989999455,147.83442830000422,147.83442830000422,148.33433589999913,148.83438119999482,148.81802140000218,None,0,,,,,,,,,,,,,,,9,001,2026-04-10_15h17.45.375,0back,,2025.1.1,60.24833157201229,2026-04-10 15h17.54.430402 +0200,
37,37,0,M,N,return,1.3754484000091907,None,None,0,,,,,,,,0,0,0,0,0,2,2,0,0,37,37,20,148.83438119999482,,,,,,,,,,,,,,148.8191497999942,148.83438119999482,148.83438119999482,149.33441169999423,149.83431819999532,149.81820550000702,None,0,,,,,,,,,,,,,,,9,001,2026-04-10_15h17.45.375,0back,,2025.1.1,60.24833157201229,2026-04-10 15h17.54.430402 +0200,
38,38,0,M,A,return,1.3754484000091907,None,None,0,,,,,,,,0,0,0,0,0,2,2,0,0,38,38,36,149.83431819999532,,,,,,,,,,,,,,149.82078690000344,149.83431819999532,149.83431819999532,150.33435669999744,150.83443370000168,150.81821359999594,None,0,,,,,,,,,,,,,,,9,001,2026-04-10_15h17.45.375,0back,,2025.1.1,60.24833157201229,2026-04-10 15h17.54.430402 +0200,
39,39,0,M,I,return,1.3754484000091907,None,None,0,,,,,,,,0,0,0,0,0,2,2,0,0,39,39,44,150.83443370000168,,,,,,,,,,,,,,150.81936660000065,150.83443370000168,150.83443370000168,151.33436880000227,151.83440200000769,151.8179203000036,None,0,,,,,,,,,,,,,,,9,001,2026-04-10_15h17.45.375,0back,,2025.1.1,60.24833157201229,2026-04-10 15h17.54.430402 +0200,
40,40,0,M,R,return,1.3754484000091907,None,None,0,,,,,,,,0,0,0,0,0,2,2,0,0,40,40,15,151.83440200000769,,,,,,,,,,,,,,151.81906690000324,151.83440200000769,151.83440200000769,152.33445920000668,152.83443230000557,152.81803450000007,None,0,,,,,,,,,,,,,,,9,001,2026-04-10_15h17.45.375,0back,,2025.1.1,60.24833157201229,2026-04-10 15h17.54.430402 +0200,
41,41,0,M,M,return,1.3754484000091907,None,space,1,0.4547595000040019,0.10440589999780059,,,,,,0,0,0,0,0,2,2,0,0,41,41,2,152.83443230000557,,,,,,,,,,,,,,152.81998709999607,152.83443230000557,152.83443230000557,153.33432270000048,153.83435990000726,153.8180977000011,space,1,0.4547595000040019,0.10440589999780059,,,,,,,,,,,,,9,001,2026-04-10_15h17.45.375,0back,,2025.1.1,60.24833157201229,2026-04-10 15h17.54.430402 +0200,
42,42,0,M,A,return,1.3754484000091907,None,None,0,,,,,,,,0,0,0,0,0,2,2,0,0,42,42,38,153.83435990000726,,,,,,,,,,,,,,153.8193014999997,153.83435990000726,153.83435990000726,154.33442749999813,154.8344814000011,154.81816249999974,None,0,,,,,,,,,,,,,,,9,001,2026-04-10_15h17.45.375,0back,,2025.1.1,60.24833157201229,2026-04-10 15h17.54.430402 +0200,
43,43,0,M,N,return,1.3754484000091907,None,None,0,,,,,,,,0,0,0,0,0,2,2,0,0,43,43,21,154.8344814000011,,,,,,,,,,,,,,154.8212302000029,154.8344814000011,154.8344814000011,155.3344278000004,155.8343978000048,155.81813280000642,None,0,,,,,,,,,,,,,,,9,001,2026-04-10_15h17.45.375,0back,,2025.1.1,60.24833157201229,2026-04-10 15h17.54.430402 +0200,
44,44,0,M,A,return,1.3754484000091907,None,None,0,,,,,,,,0,0,0,0,0,2,2,0,0,44,44,31,155.8343978000048,,,,,,,,,,,,,,155.81955139999627,155.8343978000048,155.8343978000048,156.33445510000456,156.83436930000607,156.81805509999685,None,0,,,,,,,,,,,,,,,9,001,2026-04-10_15h17.45.375,0back,,2025.1.1,60.24833157201229,2026-04-10 15h17.54.430402 +0200,
45,45,0,M,R,return,1.3754484000091907,None,None,0,,,,,,,,0,0,0,0,0,2,2,0,0,45,45,12,156.83436930000607,,,,,,,,,,,,,,156.81932880000386,156.83436930000607,156.83436930000607,157.33473299999605,157.83443820000684,157.81792109999515,None,0,,,,,,,,,,,,,,,9,001,2026-04-10_15h17.45.375,0back,,2025.1.1,60.24833157201229,2026-04-10 15h17.54.430402 +0200,
46,46,0,M,M,return,1.3754484000091907,None,space,1,0.518455500001437,0.12837690000014845,,,,,,0,0,0,0,0,2,2,0,0,46,46,6,157.83443820000684,,,,,,,,,,,,,,157.81975589999638,157.83443820000684,157.83443820000684,158.33441729999322,158.83444079999754,158.81825830000162,space,1,0.518455500001437,0.12837690000014845,,,,,,,,,,,,,9,001,2026-04-10_15h17.45.375,0back,,2025.1.1,60.24833157201229,2026-04-10 15h17.54.430402 +0200,
47,47,0,M,A,return,1.3754484000091907,None,None,0,,,,,,,,0,0,0,0,0,2,2,0,0,47,47,29,158.83444079999754,,,,,,,,,,,,,,158.82086989999516,158.83444079999754,158.83444079999754,159.3343171000015,159.83432530000573,159.818091299996,None,0,,,,,,,,,,,,,,,9,001,2026-04-10_15h17.45.375,0back,,2025.1.1,60.24833157201229,2026-04-10 15h17.54.430402 +0200,
48,48,0,M,Q,return,1.3754484000091907,None,None,0,,,,,,,,0,0,0,0,0,2,2,0,0,48,48,47,159.83432530000573,,,,,,,,,,,,,,159.81933640000352,159.83432530000573,159.83432530000573,160.33431279999786,160.83439240000735,160.81805899999745,None,0,,,,,,,,,,,,,,,9,001,2026-04-10_15h17.45.375,0back,,2025.1.1,60.24833157201229,2026-04-10 15h17.54.430402 +0200,
49,49,0,M,O,return,1.3754484000091907,None,None,0,,,,,,,,0,0,0,0,0,2,2,0,0,49,49,45,160.83439240000735,,,,,,,,,,,,,,160.8198726999981,160.83439240000735,160.83439240000735,161.33439190000354,,161.81876599999669,None,0,,,,,,,,,,,,,,,9,001,2026-04-10_15h17.45.375,0back,,2025.1.1,60.24833157201229,2026-04-10 15h17.54.430402 +0200,
2,2,0,M,,return,1.3754484000091907,None,,,,,,,,,,0,0,0,0,0,2,2,0,,,,,,,,,,,,,,,,,,,,,,,,,,,,,,,,,,,,,,,,,9,001,2026-04-10_15h17.45.375,0back,,2025.1.1,60.24833157201229,2026-04-10 15h17.54.430402 +0200,
0,0,0,A,I,return,1.5431978999986313,None,None,0,,,,,,,,0,0,0,0,0,3,3,2,0,0,0,44,163.4024492000026,,,,,161.8245207,161.83444829999644,161.83444829999644,161.83444829999644,161.83444829999644,163.38466579999658,return,1.5431978999986313,None,163.39016870000341,163.4024492000026,163.4024492000026,163.91780510000535,,164.4016319000075,None,0,,,,,,,,,,,,,,,9,001,2026-04-10_15h17.45.375,0back,,2025.1.1,60.24833157201229,2026-04-10 15h17.54.430402 +0200,
1,1,0,A,A,return,1.5431978999986313,None,space,1,0.43136029999004677,0.13600810000207275,,,,,,0,0,0,0,0,3,3,2,0,1,1,31,164.4179140000051,,,,,,,,,,,,,,164.40370330000587,164.4179140000051,164.4179140000051,164.91781719999562,,165.40121999999974,space,1,0.43136029999004677,0.13600810000207275,,,,,,,,,,,,,9,001,2026-04-10_15h17.45.375,0back,,2025.1.1,60.24833157201229,2026-04-10 15h17.54.430402 +0200,
2,2,0,A,M,return,1.5431978999986313,None,None,0,,,,,,,,0,0,0,0,0,3,3,2,0,2,2,6,165.41862130000663,,,,,,,,,,,,,,165.402476999996,165.41862130000663,165.41862130000663,165.91787540000223,,166.40120360000583,None,0,,,,,,,,,,,,,,,9,001,2026-04-10_15h17.45.375,0back,,2025.1.1,60.24833157201229,2026-04-10 15h17.54.430402 +0200,
3,3,0,A,R,return,1.5431978999986313,None,None,0,,,,,,,,0,0,0,0,0,3,3,2,0,3,3,16,166.4179143000074,,,,,,,,,,,,,,166.4023931999982,166.4179143000074,166.4179143000074,166.91789650000283,,167.40125779999653,None,0,,,,,,,,,,,,,,,9,001,2026-04-10_15h17.45.375,0back,,2025.1.1,60.24833157201229,2026-04-10 15h17.54.430402 +0200,
4,4,0,A,M,return,1.5431978999986313,None,None,0,,,,,,,,0,0,0,0,0,3,3,2,0,4,4,5,167.41787229999318,,,,,,,,,,,,,,167.40250430000015,167.41787229999318,167.41787229999318,167.91786000000138,,168.40115170000354,None,0,,,,,,,,,,,,,,,9,001,2026-04-10_15h17.45.375,0back,,2025.1.1,60.24833157201229,2026-04-10 15h17.54.430402 +0200,
5,5,0,A,R,return,1.5431978999986313,None,None,0,,,,,,,,0,0,0,0,0,3,3,2,0,5,5,15,168.41786010000214,,,,,,,,,,,,,,168.4025479999982,168.41786010000214,168.41786010000214,168.9179351000057,,169.40124150000338,None,0,,,,,,,,,,,,,,,9,001,2026-04-10_15h17.45.375,0back,,2025.1.1,60.24833157201229,2026-04-10 15h17.54.430402 +0200,
6,6,0,A,N,return,1.5431978999986313,None,None,0,,,,,,,,0,0,0,0,0,3,3,2,0,6,6,25,169.41789959999733,,,,,,,,,,,,,,169.40239669999573,169.41789959999733,169.41789959999733,169.91782960000273,,170.40130090000457,None,0,,,,,,,,,,,,,,,9,001,2026-04-10_15h17.45.375,0back,,2025.1.1,60.24833157201229,2026-04-10 15h17.54.430402 +0200,
7,7,0,A,R,return,1.5431978999986313,None,None,0,,,,,,,,0,0,0,0,0,3,3,2,0,7,7,18,170.41785470000468,,,,,,,,,,,,,,170.40244030000758,170.41785470000468,170.41785470000468,170.9178424999991,,171.40125680000347,None,0,,,,,,,,,,,,,,,9,001,2026-04-10_15h17.45.375,0back,,2025.1.1,60.24833157201229,2026-04-10 15h17.54.430402 +0200,
8,8,0,A,P,return,1.5431978999986313,None,None,0,,,,,,,,0,0,0,0,0,3,3,2,0,8,8,46,171.41788059999817,,,,,,,,,,,,,,171.40263440000126,171.41788059999817,171.41788059999817,171.91785729999538,,172.40116330000455,None,0,,,,,,,,,,,,,,,9,001,2026-04-10_15h17.45.375,0back,,2025.1.1,60.24833157201229,2026-04-10 15h17.54.430402 +0200,
9,9,0,A,A,return,1.5431978999986313,None,space,1,0.4636112000007415,0.11137719999533147,,,,,,0,0,0,0,0,3,3,2,0,9,9,29,172.4178338000056,,,,,,,,,,,,,,172.40297830000054,172.4178338000056,172.4178338000056,172.9178416000068,,173.40127269999357,space,1,0.4636112000007415,0.11137719999533147,,,,,,,,,,,,,9,001,2026-04-10_15h17.45.375,0back,,2025.1.1,60.24833157201229,2026-04-10 15h17.54.430402 +0200,
10,10,0,A,M,return,1.5431978999986313,None,None,0,,,,,,,,0,0,0,0,0,3,3,2,0,10,10,8,173.4178774000029,,,,,,,,,,,,,,173.4024747000076,173.4178774000029,173.4178774000029,173.91784700000426,,174.4012503999984,None,0,,,,,,,,,,,,,,,9,001,2026-04-10_15h17.45.375,0back,,2025.1.1,60.24833157201229,2026-04-10 15h17.54.430402 +0200,
11,11,0,A,R,return,1.5431978999986313,None,None,0,,,,,,,,0,0,0,0,0,3,3,2,0,11,11,12,174.41784870000265,,,,,,,,,,,,,,174.40246490000573,174.41784870000265,174.41784870000265,174.9179601000069,,175.40118729999813,None,0,,,,,,,,,,,,,,,9,001,2026-04-10_15h17.45.375,0back,,2025.1.1,60.24833157201229,2026-04-10 15h17.54.430402 +0200,
12,12,0,A,Y,return,1.5431978999986313,None,None,0,,,,,,,,0,0,0,0,0,3,3,2,0,12,12,42,175.41789290000452,,,,,,,,,,,,,,175.40253680000023,175.41789290000452,175.41789290000452,175.91784619999817,,176.4014993000019,None,0,,,,,,,,,,,,,,,9,001,2026-04-10_15h17.45.375,0back,,2025.1.1,60.24833157201229,2026-04-10 15h17.54.430402 +0200,
13,13,0,A,R,return,1.5431978999986313,None,None,0,,,,,,,,0,0,0,0,0,3,3,2,0,13,13,10,176.41788730000553,,,,,,,,,,,,,,176.4027511000022,176.41788730000553,176.41788730000553,176.9178682000056,,177.40119299999787,None,0,,,,,,,,,,,,,,,9,001,2026-04-10_15h17.45.375,0back,,2025.1.1,60.24833157201229,2026-04-10 15h17.54.430402 +0200,
14,14,0,A,A,return,1.5431978999986313,None,space,1,0.4634743000060553,0.09612380000180565,,,,,,0,0,0,0,0,3,3,2,0,14,14,38,177.4178896999947,,,,,,,,,,,,,,177.40329990000464,177.4178896999947,177.4178896999947,177.91790090000723,,178.4014152000018,space,1,0.4634743000060553,0.09612380000180565,,,,,,,,,,,,,9,001,2026-04-10_15h17.45.375,0back,,2025.1.1,60.24833157201229,2026-04-10 15h17.54.430402 +0200,
15,15,0,A,R,return,1.5431978999986313,None,None,0,,,,,,,,0,0,0,0,0,3,3,2,0,15,15,17,178.4178874000063,,,,,,,,,,,,,,178.4028626000072,178.4178874000063,178.4178874000063,178.91786119999597,,179.40129290000186,None,0,,,,,,,,,,,,,,,9,001,2026-04-10_15h17.45.375,0back,,2025.1.1,60.24833157201229,2026-04-10 15h17.54.430402 +0200,
16,16,0,A,T,return,1.5431978999986313,None,None,0,,,,,,,,0,0,0,0,0,3,3,2,0,16,16,41,179.4178488000034,,,,,,,,,,,,,,179.40250070000184,179.4178488000034,179.4178488000034,179.91781620000256,,180.40128570000525,None,0,,,,,,,,,,,,,,,9,001,2026-04-10_15h17.45.375,0back,,2025.1.1,60.24833157201229,2026-04-10 15h17.54.430402 +0200,
17,17,0,A,A,return,1.5431978999986313,None,None,0,,,,,,,,0,0,0,0,0,3,3,2,0,17,17,34,180.41791869999724,,,,,,,,,,,,,,180.4030735999986,180.41791869999724,180.41791869999724,180.91783700000087,,181.401337400006,None,0,,,,,,,,,,,,,,,9,001,2026-04-10_15h17.45.375,0back,,2025.1.1,60.24833157201229,2026-04-10 15h17.54.430402 +0200,
18,18,0,A,N,return,1.5431978999986313,None,space,1,0.11981580000428949,0.11189349999767728,,,,,,0,0,0,0,0,3,3,2,0,18,18,20,181.41789510000672,,,,,,,,,,,,,,181.40261210000608,181.41789510000672,181.41789510000672,181.91787849999673,,182.40132790000644,space,1,0.11981580000428949,0.11189349999767728,,,,,,,,,,,,,9,001,2026-04-10_15h17.45.375,0back,,2025.1.1,60.24833157201229,2026-04-10 15h17.54.430402 +0200,
19,19,0,A,A,return,1.5431978999986313,None,space,1,0.47143530000175815,0.11216679999779444,,,,,,0,0,0,0,0,3,3,2,0,19,19,30,182.41785899999377,,,,,,,,,,,,,,182.40455310000107,182.41785899999377,182.41785899999377,182.9178344999964,,183.38486540000304,space,1,0.47143530000175815,0.11216679999779444,,,,,,,,,,,,,9,001,2026-04-10_15h17.45.375,0back,,2025.1.1,60.24833157201229,2026-04-10 15h17.54.430402 +0200,
20,20,0,A,N,return,1.5431978999986313,None,None,0,,,,,,,,0,0,0,0,0,3,3,2,0,20,20,26,183.40124570000626,,,,,,,,,,,,,,183.38642350000737,183.40124570000626,183.40124570000626,183.90124099999957,184.40121690000524,184.38444300000265,None,0,,,,,,,,,,,,,,,9,001,2026-04-10_15h17.45.375,0back,,2025.1.1,60.24833157201229,2026-04-10 15h17.54.430402 +0200,
21,21,0,A,R,return,1.5431978999986313,None,None,0,,,,,,,,0,0,0,0,0,3,3,2,0,21,21,13,184.40121690000524,,,,,,,,,,,,,,184.3855620999966,184.40121690000524,184.40121690000524,184.90131370000017,185.40117749999627,185.3845919000014,None,0,,,,,,,,,,,,,,,9,001,2026-04-10_15h17.45.375,0back,,2025.1.1,60.24833157201229,2026-04-10 15h17.54.430402 +0200,
22,22,0,A,U,return,1.5431978999986313,None,None,0,,,,,,,,0,0,0,0,0,3,3,2,0,22,22,43,185.40117749999627,,,,,,,,,,,,,,185.38592580000113,185.40117749999627,185.40117749999627,185.9012434000033,186.40128419999382,186.38447940000333,None,0,,,,,,,,,,,,,,,9,001,2026-04-10_15h17.45.375,0back,,2025.1.1,60.24833157201229,2026-04-10 15h17.54.430402 +0200,
23,23,0,A,E,return,1.5431978999986313,None,None,0,,,,,,,,0,0,0,0,0,3,3,2,0,23,23,40,186.40128419999382,,,,,,,,,,,,,,186.3856756000023,186.40128419999382,186.40128419999382,186.90117470000405,187.4012112000055,187.38450600000215,None,0,,,,,,,,,,,,,,,9,001,2026-04-10_15h17.45.375,0back,,2025.1.1,60.24833157201229,2026-04-10 15h17.54.430402 +0200,
24,24,0,A,R,return,1.5431978999986313,None,None,0,,,,,,,,0,0,0,0,0,3,3,2,0,24,24,11,187.4012112000055,,,,,,,,,,,,,,187.3856861999957,187.4012112000055,187.4012112000055,187.90126840000448,188.40123410000524,188.38456920000317,None,0,,,,,,,,,,,,,,,9,001,2026-04-10_15h17.45.375,0back,,2025.1.1,60.24833157201229,2026-04-10 15h17.54.430402 +0200,
25,25,0,A,N,return,1.5431978999986313,None,None,0,,,,,,,,0,0,0,0,0,3,3,2,0,25,25,19,188.40123410000524,,,,,,,,,,,,,,188.38576780000585,188.40123410000524,188.40123410000524,188.90118600000278,189.40122749999864,189.38442610000493,None,0,,,,,,,,,,,,,,,9,001,2026-04-10_15h17.45.375,0back,,2025.1.1,60.24833157201229,2026-04-10 15h17.54.430402 +0200,
26,26,0,A,N,return,1.5431978999986313,None,None,0,,,,,,,,0,0,0,0,0,3,3,2,0,26,26,21,189.40122749999864,,,,,,,,,,,,,,189.3845427000051,189.40122749999864,189.40122749999864,189.90121949999593,190.4011407999933,190.38470470000175,None,0,,,,,,,,,,,,,,,9,001,2026-04-10_15h17.45.375,0back,,2025.1.1,60.24833157201229,2026-04-10 15h17.54.430402 +0200,
27,27,0,A,N,return,1.5431978999986313,None,None,0,,,,,,,,0,0,0,0,0,3,3,2,0,27,27,23,190.4011407999933,,,,,,,,,,,,,,190.38483510000515,190.4011407999933,190.4011407999933,190.90123709999898,191.40122719999636,191.38460980000673,None,0,,,,,,,,,,,,,,,9,001,2026-04-10_15h17.45.375,0back,,2025.1.1,60.24833157201229,2026-04-10 15h17.54.430402 +0200,
28,28,0,A,M,return,1.5431978999986313,None,space,1,0.4968377000041073,0.08769210000173189,,,,,,0,0,0,0,0,3,3,2,0,28,28,3,191.40122719999636,,,,,,,,,,,,,,191.38578480000433,191.40122719999636,191.40122719999636,191.90111940000497,192.40120100000058,192.38457280000148,space,1,0.4968377000041073,0.08769210000173189,,,,,,,,,,,,,9,001,2026-04-10_15h17.45.375,0back,,2025.1.1,60.24833157201229,2026-04-10 15h17.54.430402 +0200,
29,29,0,A,Q,return,1.5431978999986313,None,None,0,,,,,,,,0,0,0,0,0,3,3,2,0,29,29,47,192.40120100000058,,,,,,,,,,,,,,192.38594100000046,192.40120100000058,192.40120100000058,192.90121080000245,193.40120000000752,193.38449840000249,None,0,,,,,,,,,,,,,,,9,001,2026-04-10_15h17.45.375,0back,,2025.1.1,60.24833157201229,2026-04-10 15h17.54.430402 +0200,
30,30,0,A,N,return,1.5431978999986313,None,None,0,,,,,,,,0,0,0,0,0,3,3,2,0,30,30,28,193.40120000000752,,,,,,,,,,,,,,193.38578219999908,193.40120000000752,193.40120000000752,193.90122939999856,194.40114529999846,194.38445409999986,None,0,,,,,,,,,,,,,,,9,001,2026-04-10_15h17.45.375,0back,,2025.1.1,60.24833157201229,2026-04-10 15h17.54.430402 +0200,
31,31,0,A,R,return,1.5431978999986313,None,None,0,,,,,,,,0,0,0,0,0,3,3,2,0,31,31,9,194.40114529999846,,,,,,,,,,,,,,194.38571210000373,194.40114529999846,194.40114529999846,194.9011582999956,195.4016949999932,195.38454430000274,None,0,,,,,,,,,,,,,,,9,001,2026-04-10_15h17.45.375,0back,,2025.1.1,60.24833157201229,2026-04-10 15h17.54.430402 +0200,
32,32,0,A,A,return,1.5431978999986313,None,space,1,0.47950289999425877,0.1694011999934446,,,,,,0,0,0,0,0,3,3,2,0,32,32,36,195.4016949999932,,,,,,,,,,,,,,195.38716549999663,195.4016949999932,195.4016949999932,195.90115360000345,196.40115340000193,196.3845072999975,space,1,0.47950289999425877,0.1694011999934446,,,,,,,,,,,,,9,001,2026-04-10_15h17.45.375,0back,,2025.1.1,60.24833157201229,2026-04-10 15h17.54.430402 +0200,
33,33,0,A,N,return,1.5431978999986313,None,None,0,,,,,,,,0,0,0,0,0,3,3,2,0,33,33,27,196.40115340000193,,,,,,,,,,,,,,196.38575879999553,196.40115340000193,196.40115340000193,196.90118000000075,197.40128639999602,197.38456439999572,None,0,,,,,,,,,,,,,,,9,001,2026-04-10_15h17.45.375,0back,,2025.1.1,60.24833157201229,2026-04-10 15h17.54.430402 +0200,
34,34,0,A,N,return,1.5431978999986313,None,None,0,,,,,,,,0,0,0,0,0,3,3,2,0,34,34,24,197.40128639999602,,,,,,,,,,,,,,197.38468449999345,197.40128639999602,197.40128639999602,197.90126850000524,198.40114109999558,198.38453680000384,None,0,,,,,,,,,,,,,,,9,001,2026-04-10_15h17.45.375,0back,,2025.1.1,60.24833157201229,2026-04-10 15h17.54.430402 +0200,
35,35,0,A,O,return,1.5431978999986313,None,None,0,,,,,,,,0,0,0,0,0,3,3,2,0,35,35,45,198.40114109999558,,,,,,,,,,,,,,198.38570739999705,198.40114109999558,198.40114109999558,198.90114099999482,199.40129579999484,199.38473809999414,None,0,,,,,,,,,,,,,,,9,001,2026-04-10_15h17.45.375,0back,,2025.1.1,60.24833157201229,2026-04-10 15h17.54.430402 +0200,
36,36,0,A,C,return,1.5431978999986313,None,None,0,,,,,,,,0,0,0,0,0,3,3,2,0,36,36,49,199.40129579999484,,,,,,,,,,,,,,199.38604559999658,199.40129579999484,199.40129579999484,199.90219130000332,200.40122410000185,200.38450240000384,None,0,,,,,,,,,,,,,,,9,001,2026-04-10_15h17.45.375,0back,,2025.1.1,60.24833157201229,2026-04-10 15h17.54.430402 +0200,
37,37,0,A,M,return,1.5431978999986313,None,None,0,,,,,,,,0,0,0,0,0,3,3,2,0,37,37,2,200.40122410000185,,,,,,,,,,,,,,200.38592970000172,200.40122410000185,200.40122410000185,200.90115600000718,201.4012645000039,201.38457369999378,None,0,,,,,,,,,,,,,,,9,001,2026-04-10_15h17.45.375,0back,,2025.1.1,60.24833157201229,2026-04-10 15h17.54.430402 +0200,
38,38,0,A,M,return,1.5431978999986313,None,None,0,,,,,,,,0,0,0,0,0,3,3,2,0,38,38,4,201.4012645000039,,,,,,,,,,,,,,201.38469439999608,201.4012645000039,201.4012645000039,201.9012095999933,202.40123210000456,202.38442159999977,None,0,,,,,,,,,,,,,,,9,001,2026-04-10_15h17.45.375,0back,,2025.1.1,60.24833157201229,2026-04-10 15h17.54.430402 +0200,
39,39,0,A,Z,return,1.5431978999986313,None,None,0,,,,,,,,0,0,0,0,0,3,3,2,0,39,39,39,202.40123210000456,,,,,,,,,,,,,,202.38647949999722,202.40123210000456,202.40123210000456,202.90120540000498,203.40121280000312,203.3844994999963,None,0,,,,,,,,,,,,,,,9,001,2026-04-10_15h17.45.375,0back,,2025.1.1,60.24833157201229,2026-04-10 15h17.54.430402 +0200,
40,40,0,A,M,return,1.5431978999986313,None,None,0,,,,,,,,0,0,0,0,0,3,3,2,0,40,40,7,203.40121280000312,,,,,,,,,,,,,,203.38629460000084,203.40121280000312,203.40121280000312,203.90124269999797,204.40125359999365,204.3845178000047,None,0,,,,,,,,,,,,,,,9,001,2026-04-10_15h17.45.375,0back,,2025.1.1,60.24833157201229,2026-04-10 15h17.54.430402 +0200,
41,41,0,A,A,return,1.5431978999986313,None,space,1,0.47336179998819716,0.10382150000077672,,,,,,0,0,0,0,0,3,3,2,0,41,41,37,204.40125359999365,,,,,,,,,,,,,,204.3864459000033,204.40125359999365,204.40125359999365,204.90120249999745,205.40115970000625,205.3844945000019,space,1,0.47336179998819716,0.10382150000077672,,,,,,,,,,,,,9,001,2026-04-10_15h17.45.375,0back,,2025.1.1,60.24833157201229,2026-04-10 15h17.54.430402 +0200,
42,42,0,A,M,return,1.5431978999986313,None,None,0,,,,,,,,0,0,0,0,0,3,3,2,0,42,42,0,205.40115970000625,,,,,,,,,,,,,,205.38593620000756,205.40115970000625,205.40115970000625,205.90126650000457,206.40140420000535,206.38462090000394,None,0,,,,,,,,,,,,,,,9,001,2026-04-10_15h17.45.375,0back,,2025.1.1,60.24833157201229,2026-04-10 15h17.54.430402 +0200,
43,43,0,A,A,return,1.5431978999986313,None,space,1,0.48016969999298453,0.11220800000592135,,,,,,0,0,0,0,0,3,3,2,0,43,43,32,206.40140420000535,,,,,,,,,,,,,,206.3866912999947,206.40140420000535,206.40140420000535,206.90115649999643,207.4011724000011,207.3844484000001,space,1,0.48016969999298453,0.11220800000592135,,,,,,,,,,,,,9,001,2026-04-10_15h17.45.375,0back,,2025.1.1,60.24833157201229,2026-04-10 15h17.54.430402 +0200,
44,44,0,A,A,return,1.5431978999986313,None,space,1,0.5289090000005672,0.14320239999506157,,,,,,0,0,0,0,0,3,3,2,0,44,44,33,207.4011724000011,,,,,,,,,,,,,,207.38520220000646,207.4011724000011,207.4011724000011,207.90126709999458,208.4012420999934,208.38455659999454,space,1,0.5289090000005672,0.14320239999506157,,,,,,,,,,,,,9,001,2026-04-10_15h17.45.375,0back,,2025.1.1,60.24833157201229,2026-04-10 15h17.54.430402 +0200,
45,45,0,A,N,return,1.5431978999986313,None,None,0,,,,,,,,0,0,0,0,0,3,3,2,0,45,45,22,208.4012420999934,,,,,,,,,,,,,,208.3857171999989,208.4012420999934,208.4012420999934,208.90124669999932,209.40124849999847,209.38482039999508,None,0,,,,,,,,,,,,,,,9,001,2026-04-10_15h17.45.375,0back,,2025.1.1,60.24833157201229,2026-04-10 15h17.54.430402 +0200,
46,46,0,A,A,return,1.5431978999986313,None,space,1,0.5125318000063999,0.1289178000006359,,,,,,0,0,0,0,0,3,3,2,0,46,46,35,209.40124849999847,,,,,,,,,,,,,,209.38840729999356,209.40124849999847,209.40124849999847,209.90129080000042,210.4012451000017,210.38454319999437,space,1,0.5125318000063999,0.1289178000006359,,,,,,,,,,,,,9,001,2026-04-10_15h17.45.375,0back,,2025.1.1,60.24833157201229,2026-04-10 15h17.54.430402 +0200,
47,47,0,A,D,return,1.5431978999986313,None,None,0,,,,,,,,0,0,0,0,0,3,3,2,0,47,47,48,210.4012451000017,,,,,,,,,,,,,,210.38580050000746,210.4012451000017,210.4012451000017,210.90128459999687,211.40121229999932,211.38471509999363,None,0,,,,,,,,,,,,,,,9,001,2026-04-10_15h17.45.375,0back,,2025.1.1,60.24833157201229,2026-04-10 15h17.54.430402 +0200,
48,48,0,A,R,return,1.5431978999986313,None,None,0,,,,,,,,0,0,0,0,0,3,3,2,0,48,48,14,211.40121229999932,,,,,,,,,,,,,,211.3874119999964,211.40121229999932,211.40121229999932,211.90123440000752,212.40116170000692,212.38456429999496,None,0,,,,,,,,,,,,,,,9,001,2026-04-10_15h17.45.375,0back,,2025.1.1,60.24833157201229,2026-04-10 15h17.54.430402 +0200,
49,49,0,A,M,return,1.5431978999986313,None,None,0,,,,,,,,0,0,0,0,0,3,3,2,0,49,49,1,212.40116170000692,,,,,,,,,,,,,,212.38571709999815,212.40116170000692,212.40116170000692,212.90123689999746,213.42471870000008,213.38455709999835,None,0,,,,,,,,,,,,,,,9,001,2026-04-10_15h17.45.375,0back,,2025.1.1,60.24833157201229,2026-04-10 15h17.54.430402 +0200,
3,3,0,A,,return,1.5431978999986313,None,,,,,,,,,,0,0,0,0,0,3,3,2,,,,,,,,,,,,,,,,,,,,,,,,,,,,,,,,,,,,,,,,,9,001,2026-04-10_15h17.45.375,0back,,2025.1.1,60.24833157201229,2026-04-10 15h17.54.430402 +0200,
0,0,0,,,,,,,,,,4.0,13.08111800000188,1,[14.717615500005195],[14.717619899995043],0,0,0,0,,,,,,,,,,,,,,,,,,,,,,,,,,,,,,,,,213.39444950000325,213.42471870000008,213.42471870000008,213.42471870000008,213.42471870000008,213.42471870000008,228.14293159999943,4.0,13.08111800000188,1,[14.717615500005195],[14.717619899995043],9,001,2026-04-10_15h17.45.375,0back,,2025.1.1,60.24833157201229,2026-04-10 15h17.54.430402 +0200,
0,0,0,A,C,return,2.821327800003928,None,None,0,,,,,,,,1,0,1,0,0,0,0,2,0,0,0,49,231.00109130000055,,,,,228.1470272000006,228.1488895000075,228.1488895000075,228.1488895000075,228.1488895000075,230.98495280000498,return,2.821327800003928,None,230.99071359999652,231.00109130000055,231.00109130000055,231.501159499996,232.00112539999827,231.98483040000428,None,0,,,,,,,,,,,,,,,9,001,2026-04-10_15h17.45.375,0back,,2025.1.1,60.24833157201229,2026-04-10 15h17.54.430402 +0200,
1,1,0,A,I,return,2.821327800003928,None,None,0,,,,,,,,1,0,1,0,0,0,0,2,0,1,1,44,232.00112539999827,,,,,,,,,,,,,,231.98602939999546,232.00112539999827,232.00112539999827,232.50104570000258,233.00102779999725,232.98479279999447,None,0,,,,,,,,,,,,,,,9,001,2026-04-10_15h17.45.375,0back,,2025.1.1,60.24833157201229,2026-04-10 15h17.54.430402 +0200,
2,2,0,A,N,return,2.821327800003928,None,None,0,,,,,,,,1,0,1,0,0,0,0,2,0,2,2,23,233.00102779999725,,,,,,,,,,,,,,232.9860214000073,233.00102779999725,233.00102779999725,233.50110100000165,234.00107660000504,233.98497950000456,None,0,,,,,,,,,,,,,,,9,001,2026-04-10_15h17.45.375,0back,,2025.1.1,60.24833157201229,2026-04-10 15h17.54.430402 +0200,
3,3,0,A,P,return,2.821327800003928,None,None,0,,,,,,,,1,0,1,0,0,0,0,2,0,3,3,46,234.00107660000504,,,,,,,,,,,,,,233.98628159999498,234.00107660000504,234.00107660000504,234.50109180000436,,234.98521939999773,None,0,,,,,,,,,,,,,,,9,001,2026-04-10_15h17.45.375,0back,,2025.1.1,60.24833157201229,2026-04-10 15h17.54.430402 +0200,
4,4,0,A,N,return,2.821327800003928,None,None,0,,,,,,,,1,0,1,0,0,0,0,2,0,4,4,22,235.0020810999995,,,,,,,,,,,,,,234.9867901999969,235.0020810999995,235.0020810999995,235.5010814999987,,235.9851561999967,None,0,,,,,,,,,,,,,,,9,001,2026-04-10_15h17.45.375,0back,,2025.1.1,60.24833157201229,2026-04-10 15h17.54.430402 +0200,
5,5,0,A,N,return,2.821327800003928,None,None,0,,,,,,,,1,0,1,0,0,0,0,2,0,5,5,28,236.00113590000547,,,,,,,,,,,,,,235.98532690000138,236.00113590000547,236.00113590000547,236.50119989999803,237.00118010000733,236.98485470000014,None,0,,,,,,,,,,,,,,,9,001,2026-04-10_15h17.45.375,0back,,2025.1.1,60.24833157201229,2026-04-10 15h17.54.430402 +0200,
6,6,0,A,R,return,2.821327800003928,None,None,0,,,,,,,,1,0,1,0,0,0,0,2,0,6,6,13,237.00118010000733,,,,,,,,,,,,,,236.98622700000124,237.00118010000733,237.00118010000733,237.50116070000513,238.0011427999998,237.98498140000447,None,0,,,,,,,,,,,,,,,9,001,2026-04-10_15h17.45.375,0back,,2025.1.1,60.24833157201229,2026-04-10 15h17.54.430402 +0200,
7,7,0,A,M,return,2.821327800003928,None,None,0,,,,,,,,1,0,1,0,0,0,0,2,0,7,7,1,238.0011427999998,,,,,,,,,,,,,,237.98623130000487,238.0011427999998,238.0011427999998,238.5011688999948,239.00105089999852,238.98493730000337,None,0,,,,,,,,,,,,,,,9,001,2026-04-10_15h17.45.375,0back,,2025.1.1,60.24833157201229,2026-04-10 15h17.54.430402 +0200,
8,8,0,A,A,return,2.821327800003928,None,space,1,0.44939639999938663,0.10367500000575092,,,,,,1,0,1,0,0,0,0,2,0,8,8,34,239.00105089999852,,,,,,,,,,,,,,238.98704989999533,239.00105089999852,239.00105089999852,239.50114930000564,240.00121260000742,239.98464480000257,space,1,0.44939639999938663,0.10367500000575092,,,,,,,,,,,,,9,001,2026-04-10_15h17.45.375,0back,,2025.1.1,60.24833157201229,2026-04-10 15h17.54.430402 +0200,
9,9,0,A,T,return,2.821327800003928,None,None,0,,,,,,,,1,0,1,0,0,0,0,2,0,9,9,41,240.00121260000742,,,,,,,,,,,,,,239.98589979999815,240.00121260000742,240.00121260000742,240.50108070000715,241.00118730000395,240.9846436999942,None,0,,,,,,,,,,,,,,,9,001,2026-04-10_15h17.45.375,0back,,2025.1.1,60.24833157201229,2026-04-10 15h17.54.430402 +0200,
10,10,0,A,M,return,2.821327800003928,None,None,0,,,,,,,,1,0,1,0,0,0,0,2,0,10,10,2,241.00118730000395,,,,,,,,,,,,,,240.98578889999771,241.00118730000395,241.00118730000395,241.50113679999777,242.00108040000487,241.98474679999345,None,0,,,,,,,,,,,,,,,9,001,2026-04-10_15h17.45.375,0back,,2025.1.1,60.24833157201229,2026-04-10 15h17.54.430402 +0200,
11,11,0,A,M,return,2.821327800003928,None,None,0,,,,,,,,1,0,1,0,0,0,0,2,0,11,11,4,242.00108040000487,,,,,,,,,,,,,,241.98487840000598,242.00108040000487,242.00108040000487,242.5010864000069,243.00109289999818,242.98462689999724,None,0,,,,,,,,,,,,,,,9,001,2026-04-10_15h17.45.375,0back,,2025.1.1,60.24833157201229,2026-04-10 15h17.54.430402 +0200,
12,12,0,A,A,return,2.821327800003928,None,space,1,0.4324522000097204,0.14387229998828843,,,,,,1,0,1,0,0,0,0,2,0,12,12,38,243.00109289999818,,,,,,,,,,,,,,242.98639370000456,243.00109289999818,243.00109289999818,243.5010442000057,244.00111529999413,243.9845944999979,space,1,0.4324522000097204,0.14387229998828843,,,,,,,,,,,,,9,001,2026-04-10_15h17.45.375,0back,,2025.1.1,60.24833157201229,2026-04-10 15h17.54.430402 +0200,
13,13,0,A,N,return,2.821327800003928,None,None,0,,,,,,,,1,0,1,0,0,0,0,2,0,13,13,26,244.00111529999413,,,,,,,,,,,,,,243.98576900000626,244.00111529999413,244.00111529999413,244.5010917000036,245.00119179999456,244.9847882000031,None,0,,,,,,,,,,,,,,,9,001,2026-04-10_15h17.45.375,0back,,2025.1.1,60.24833157201229,2026-04-10 15h17.54.430402 +0200,
14,14,0,A,A,return,2.821327800003928,None,space,1,0.6415670000133105,0.15062339999713004,,,,,,1,0,1,0,0,0,0,2,0,14,14,36,245.00119179999456,,,,,,,,,,,,,,244.98655909999798,245.00119179999456,245.00119179999456,245.50108319999708,246.00107339999522,245.98488459999498,space,1,0.6415670000133105,0.15062339999713004,,,,,,,,,,,,,9,001,2026-04-10_15h17.45.375,0back,,2025.1.1,60.24833157201229,2026-04-10 15h17.54.430402 +0200,
15,15,0,A,Z,return,2.821327800003928,None,None,0,,,,,,,,1,0,1,0,0,0,0,2,0,15,15,39,246.00107339999522,,,,,,,,,,,,,,245.98633080000582,246.00107339999522,246.00107339999522,246.50108190000174,247.00117200000386,246.98489419999532,None,0,,,,,,,,,,,,,,,9,001,2026-04-10_15h17.45.375,0back,,2025.1.1,60.24833157201229,2026-04-10 15h17.54.430402 +0200,
16,16,0,A,R,return,2.821327800003928,None,None,0,,,,,,,,1,0,1,0,0,0,0,2,0,16,16,11,247.00117200000386,,,,,,,,,,,,,,246.98745859999326,247.00117200000386,247.00117200000386,247.50118920000386,248.00111090000428,247.98466519999783,None,0,,,,,,,,,,,,,,,9,001,2026-04-10_15h17.45.375,0back,,2025.1.1,60.24833157201229,2026-04-10 15h17.54.430402 +0200,
17,17,0,A,N,return,2.821327800003928,None,None,0,,,,,,,,1,0,1,0,0,0,0,2,0,17,17,19,248.00111090000428,,,,,,,,,,,,,,247.98648950000643,248.00111090000428,248.00111090000428,248.5010578000074,249.00117380000302,248.98467479999817,None,0,,,,,,,,,,,,,,,9,001,2026-04-10_15h17.45.375,0back,,2025.1.1,60.24833157201229,2026-04-10 15h17.54.430402 +0200,
18,18,0,A,M,return,2.821327800003928,None,None,0,,,,,,,,1,0,1,0,0,0,0,2,0,18,18,8,249.00117380000302,,,,,,,,,,,,,,248.98579259999678,249.00117380000302,249.00117380000302,249.50109590000648,250.0011058999953,249.9846155999985,None,0,,,,,,,,,,,,,,,9,001,2026-04-10_15h17.45.375,0back,,2025.1.1,60.24833157201229,2026-04-10 15h17.54.430402 +0200,
19,19,0,A,R,return,2.821327800003928,None,None,0,,,,,,,,1,0,1,0,0,0,0,2,0,19,19,14,250.0011058999953,,,,,,,,,,,,,,249.98573699999542,250.0011058999953,250.0011058999953,250.50109590000648,251.00106290000258,250.98467030000756,None,0,,,,,,,,,,,,,,,9,001,2026-04-10_15h17.45.375,0back,,2025.1.1,60.24833157201229,2026-04-10 15h17.54.430402 +0200,
20,20,0,A,R,return,2.821327800003928,None,None,0,,,,,,,,1,0,1,0,0,0,0,2,0,20,20,12,251.00106290000258,,,,,,,,,,,,,,250.98484570000437,251.00106290000258,251.00106290000258,251.50107050000224,252.0011780000059,251.9847424000036,None,0,,,,,,,,,,,,,,,9,001,2026-04-10_15h17.45.375,0back,,2025.1.1,60.24833157201229,2026-04-10 15h17.54.430402 +0200,
21,21,0,A,A,return,2.821327800003928,None,space,1,0.4723465999995824,0.12782660000084434,,,,,,1,0,1,0,0,0,0,2,0,21,21,37,252.0011780000059,,,,,,,,,,,,,,251.9866131000017,252.0011780000059,252.0011780000059,252.5012018999987,253.00115090000327,252.98468069999944,space,1,0.4723465999995824,0.12782660000084434,,,,,,,,,,,,,9,001,2026-04-10_15h17.45.375,0back,,2025.1.1,60.24833157201229,2026-04-10 15h17.54.430402 +0200,
22,22,0,A,M,return,2.821327800003928,None,None,0,,,,,,,,1,0,1,0,0,0,0,2,0,22,22,3,253.00115090000327,,,,,,,,,,,,,,252.98580769999535,253.00115090000327,253.00115090000327,253.50106999999844,254.00098500000604,253.98468229999708,None,0,,,,,,,,,,,,,,,9,001,2026-04-10_15h17.45.375,0back,,2025.1.1,60.24833157201229,2026-04-10 15h17.54.430402 +0200,
23,23,0,A,N,return,2.821327800003928,None,None,0,,,,,,,,1,0,1,0,0,0,0,2,0,23,23,24,254.00098500000604,,,,,,,,,,,,,,253.9858408,254.00098500000604,254.00098500000604,254.5011317000026,255.00123589999566,254.9847077000013,None,0,,,,,,,,,,,,,,,9,001,2026-04-10_15h17.45.375,0back,,2025.1.1,60.24833157201229,2026-04-10 15h17.54.430402 +0200,
24,24,0,A,M,return,2.821327800003928,None,None,0,,,,,,,,1,0,1,0,0,0,0,2,0,24,24,7,255.00123589999566,,,,,,,,,,,,,,254.98611450000317,255.00123589999566,255.00123589999566,255.50109980000707,256.00108580000233,255.98475109999708,None,0,,,,,,,,,,,,,,,9,001,2026-04-10_15h17.45.375,0back,,2025.1.1,60.24833157201229,2026-04-10 15h17.54.430402 +0200,
25,25,0,A,N,return,2.821327800003928,None,None,0,,,,,,,,1,0,1,0,0,0,0,2,0,25,25,27,256.00108580000233,,,,,,,,,,,,,,255.98595410000416,256.00108580000233,256.00108580000233,256.501136100007,257.00115240000014,256.9850998000038,None,0,,,,,,,,,,,,,,,9,001,2026-04-10_15h17.45.375,0back,,2025.1.1,60.24833157201229,2026-04-10 15h17.54.430402 +0200,
26,26,0,A,R,return,2.821327800003928,None,None,0,,,,,,,,1,0,1,0,0,0,0,2,0,26,26,15,257.00115240000014,,,,,,,,,,,,,,256.98655800000415,257.00115240000014,257.00115240000014,257.50108859999455,258.00111769999785,257.9847224999976,None,0,,,,,,,,,,,,,,,9,001,2026-04-10_15h17.45.375,0back,,2025.1.1,60.24833157201229,2026-04-10 15h17.54.430402 +0200,
27,27,0,A,A,return,2.821327800003928,None,space,1,0.5223000999976648,0.16593380000267643,,,,,,1,0,1,0,0,0,0,2,0,27,27,29,258.00111769999785,,,,,,,,,,,,,,257.9865462000016,258.00111769999785,258.00111769999785,258.5010633000056,259.00113879999844,258.9846142000024,space,1,0.5223000999976648,0.16593380000267643,,,,,,,,,,,,,9,001,2026-04-10_15h17.45.375,0back,,2025.1.1,60.24833157201229,2026-04-10 15h17.54.430402 +0200,
28,28,0,A,A,return,2.821327800003928,None,space,1,0.4648657999932766,0.15219759999308735,,,,,,1,0,1,0,0,0,0,2,0,28,28,33,259.00113879999844,,,,,,,,,,,,,,258.98533789999783,259.00113879999844,259.00113879999844,259.50112129999616,260.00115189999633,259.98469379999733,space,1,0.4648657999932766,0.15219759999308735,,,,,,,,,,,,,9,001,2026-04-10_15h17.45.375,0back,,2025.1.1,60.24833157201229,2026-04-10 15h17.54.430402 +0200,
29,29,0,A,R,return,2.821327800003928,None,None,0,,,,,,,,1,0,1,0,0,0,0,2,0,29,29,10,260.00115189999633,,,,,,,,,,,,,,259.98583340000187,260.00115189999633,260.00115189999633,260.50116159999743,261.0010060000059,260.9846944000019,None,0,,,,,,,,,,,,,,,9,001,2026-04-10_15h17.45.375,0back,,2025.1.1,60.24833157201229,2026-04-10 15h17.54.430402 +0200,
30,30,0,A,E,return,2.821327800003928,None,None,0,,,,,,,,1,0,1,0,0,0,0,2,0,30,30,40,261.0010060000059,,,,,,,,,,,,,,260.98589419999917,261.0010060000059,261.0010060000059,261.50103490000765,262.001456900005,261.98474319999514,None,0,,,,,,,,,,,,,,,9,001,2026-04-10_15h17.45.375,0back,,2025.1.1,60.24833157201229,2026-04-10 15h17.54.430402 +0200,
31,31,0,A,A,return,2.821327800003928,None,space,1,0.5916779999970458,0.14410180000413675,,,,,,1,0,1,0,0,0,0,2,0,31,31,31,262.001456900005,,,,,,,,,,,,,,261.9866408999951,262.001456900005,262.001456900005,262.50104469999496,263.00119759999507,262.98470319999615,space,1,0.5916779999970458,0.14410180000413675,,,,,,,,,,,,,9,001,2026-04-10_15h17.45.375,0back,,2025.1.1,60.24833157201229,2026-04-10 15h17.54.430402 +0200,
32,32,0,A,M,return,2.821327800003928,None,None,0,,,,,,,,1,0,1,0,0,0,0,2,0,32,32,0,263.00119759999507,,,,,,,,,,,,,,262.98584069999924,263.00119759999507,263.00119759999507,263.50116790000175,264.0011444999982,263.98475420000614,None,0,,,,,,,,,,,,,,,9,001,2026-04-10_15h17.45.375,0back,,2025.1.1,60.24833157201229,2026-04-10 15h17.54.430402 +0200,
33,33,0,A,M,return,2.821327800003928,None,None,0,,,,,,,,1,0,1,0,0,0,0,2,0,33,33,5,264.0011444999982,,,,,,,,,,,,,,263.98487580000074,264.0011444999982,264.0011444999982,264.5010382000037,265.00104160000046,264.9846819999948,None,0,,,,,,,,,,,,,,,9,001,2026-04-10_15h17.45.375,0back,,2025.1.1,60.24833157201229,2026-04-10 15h17.54.430402 +0200,
34,34,0,A,R,return,2.821327800003928,None,None,0,,,,,,,,1,0,1,0,0,0,0,2,0,34,34,16,265.00104160000046,,,,,,,,,,,,,,264.9862162000063,265.00104160000046,265.00104160000046,265.5011361999932,266.0011431000021,265.9847179000062,None,0,,,,,,,,,,,,,,,9,001,2026-04-10_15h17.45.375,0back,,2025.1.1,60.24833157201229,2026-04-10 15h17.54.430402 +0200,
35,35,0,A,R,return,2.821327800003928,None,None,0,,,,,,,,1,0,1,0,0,0,0,2,0,35,35,17,266.0011431000021,,,,,,,,,,,,,,265.98484279999684,266.0011431000021,266.0011431000021,266.5011083999998,267.00169540000206,266.9847160000063,None,0,,,,,,,,,,,,,,,9,001,2026-04-10_15h17.45.375,0back,,2025.1.1,60.24833157201229,2026-04-10 15h17.54.430402 +0200,
36,36,0,A,A,return,2.821327800003928,None,space,1,0.40766499999153893,0.14422620000550523,,,,,,1,0,1,0,0,0,0,2,0,36,36,30,267.00169540000206,,,,,,,,,,,,,,266.98656859999755,267.00169540000206,267.00169540000206,267.50108570000157,268.0010743000021,267.9847015999985,space,1,0.40766499999153893,0.14422620000550523,,,,,,,,,,,,,9,001,2026-04-10_15h17.45.375,0back,,2025.1.1,60.24833157201229,2026-04-10 15h17.54.430402 +0200,
37,37,0,A,N,return,2.821327800003928,None,None,0,,,,,,,,1,0,1,0,0,0,0,2,0,37,37,20,268.0010743000021,,,,,,,,,,,,,,267.98584850000043,268.0010743000021,268.0010743000021,268.5010783000034,269.00110320000385,268.98475390000385,None,0,,,,,,,,,,,,,,,9,001,2026-04-10_15h17.45.375,0back,,2025.1.1,60.24833157201229,2026-04-10 15h17.54.430402 +0200,
38,38,0,A,N,return,2.821327800003928,None,None,0,,,,,,,,1,0,1,0,0,0,0,2,0,38,38,21,269.00110320000385,,,,,,,,,,,,,,268.9849056999956,269.00110320000385,269.00110320000385,269.5010697999969,270.00106930000766,269.98492909999914,None,0,,,,,,,,,,,,,,,9,001,2026-04-10_15h17.45.375,0back,,2025.1.1,60.24833157201229,2026-04-10 15h17.54.430402 +0200,
39,39,0,A,M,return,2.821327800003928,None,None,0,,,,,,,,1,0,1,0,0,0,0,2,0,39,39,6,270.00106930000766,,,,,,,,,,,,,,269.98710030000075,270.00106930000766,270.00106930000766,270.5010884999938,271.00113079999574,270.98468379999395,None,0,,,,,,,,,,,,,,,9,001,2026-04-10_15h17.45.375,0back,,2025.1.1,60.24833157201229,2026-04-10 15h17.54.430402 +0200,
40,40,0,A,A,return,2.821327800003928,None,space,1,0.40095179999480024,0.15916280000237748,,,,,,1,0,1,0,0,0,0,2,0,40,40,32,271.00113079999574,,,,,,,,,,,,,,270.98643429999356,271.00113079999574,271.00113079999574,271.5011356000032,272.00114649999887,271.9847272000043,space,1,0.40095179999480024,0.15916280000237748,,,,,,,,,,,,,9,001,2026-04-10_15h17.45.375,0back,,2025.1.1,60.24833157201229,2026-04-10 15h17.54.430402 +0200,
41,41,0,A,Q,return,2.821327800003928,None,None,0,,,,,,,,1,0,1,0,0,0,0,2,0,41,41,47,272.00114649999887,,,,,,,,,,,,,,271.98589260000153,272.00114649999887,272.00114649999887,272.5011252999975,273.0011921999976,272.98461850000604,None,0,,,,,,,,,,,,,,,9,001,2026-04-10_15h17.45.375,0back,,2025.1.1,60.24833157201229,2026-04-10 15h17.54.430402 +0200,
42,42,0,A,U,return,2.821327800003928,None,None,0,,,,,,,,1,0,1,0,0,0,0,2,0,42,42,43,273.0011921999976,,,,,,,,,,,,,,272.985800800001,273.0011921999976,273.0011921999976,273.501062299998,274.0011003999971,273.9847393999953,None,0,,,,,,,,,,,,,,,9,001,2026-04-10_15h17.45.375,0back,,2025.1.1,60.24833157201229,2026-04-10 15h17.54.430402 +0200,
43,43,0,A,N,return,2.821327800003928,None,None,0,,,,,,,,1,0,1,0,0,0,0,2,0,43,43,25,274.0011003999971,,,,,,,,,,,,,,273.9858985000028,274.0011003999971,274.0011003999971,274.50110660000064,275.00109740000335,274.9847133000003,None,0,,,,,,,,,,,,,,,9,001,2026-04-10_15h17.45.375,0back,,2025.1.1,60.24833157201229,2026-04-10 15h17.54.430402 +0200,
44,44,0,A,A,return,2.821327800003928,None,space,1,0.49634250000235625,0.12807770000654273,,,,,,1,0,1,0,0,0,0,2,0,44,44,35,275.00109740000335,,,,,,,,,,,,,,274.98671179999656,275.00109740000335,275.00109740000335,275.5010922999936,276.00107549999666,275.98471319999953,space,1,0.49634250000235625,0.12807770000654273,,,,,,,,,,,,,9,001,2026-04-10_15h17.45.375,0back,,2025.1.1,60.24833157201229,2026-04-10 15h17.54.430402 +0200,
45,45,0,A,D,return,2.821327800003928,None,None,0,,,,,,,,1,0,1,0,0,0,0,2,0,45,45,48,276.00107549999666,,,,,,,,,,,,,,275.9864124000014,276.00107549999666,276.00107549999666,276.5011285000073,277.0011474000057,276.9847005000047,None,0,,,,,,,,,,,,,,,9,001,2026-04-10_15h17.45.375,0back,,2025.1.1,60.24833157201229,2026-04-10 15h17.54.430402 +0200,
46,46,0,A,R,return,2.821327800003928,None,None,0,,,,,,,,1,0,1,0,0,0,0,2,0,46,46,9,277.0011474000057,,,,,,,,,,,,,,276.98583760000474,277.0011474000057,277.0011474000057,277.5011258000013,278.00106830000004,277.9848939000076,None,0,,,,,,,,,,,,,,,9,001,2026-04-10_15h17.45.375,0back,,2025.1.1,60.24833157201229,2026-04-10 15h17.54.430402 +0200,
47,47,0,A,Y,return,2.821327800003928,None,None,0,,,,,,,,1,0,1,0,0,0,0,2,0,47,47,42,278.00106830000004,,,,,,,,,,,,,,277.9875444000063,278.00106830000004,278.00106830000004,278.50109079999675,279.0011527000024,278.98467239999445,None,0,,,,,,,,,,,,,,,9,001,2026-04-10_15h17.45.375,0back,,2025.1.1,60.24833157201229,2026-04-10 15h17.54.430402 +0200,
48,48,0,A,O,return,2.821327800003928,None,None,0,,,,,,,,1,0,1,0,0,0,0,2,0,48,48,45,279.0011527000024,,,,,,,,,,,,,,278.98582489999535,279.0011527000024,279.0011527000024,279.5011499999964,280.00110969999514,279.9846863999992,None,0,,,,,,,,,,,,,,,9,001,2026-04-10_15h17.45.375,0back,,2025.1.1,60.24833157201229,2026-04-10 15h17.54.430402 +0200,
49,49,0,A,R,return,2.821327800003928,None,None,0,,,,,,,,1,0,1,0,0,0,0,2,0,49,49,18,280.00110969999514,,,,,,,,,,,,,,279.9858161000011,280.00110969999514,280.00110969999514,280.5011269999959,281.00124610000057,280.9846708999976,None,0,,,,,,,,,,,,,,,9,001,2026-04-10_15h17.45.375,0back,,2025.1.1,60.24833157201229,2026-04-10 15h17.54.430402 +0200,
0,0,0,A,,return,2.821327800003928,None,,,,,,,,,,1,0,1,0,0,0,0,2,,,,,,,,,,,,,,,,,,,,,,,,,,,,,,,,,,,,,,,,,9,001,2026-04-10_15h17.45.375,0back,,2025.1.1,60.24833157201229,2026-04-10 15h17.54.430402 +0200,
0,0,0,M,M,return,1.4397439000022132,None,None,0,,,,,,,,1,0,1,0,0,1,1,0,0,0,0,5,282.46795619999466,,,,,280.9906898000045,281.00124610000057,281.00124610000057,281.00124610000057,281.00124610000057,282.45141900000453,return,1.4397439000022132,None,282.45815920000314,282.46795619999466,282.46795619999466,282.96794289999525,,283.45153449999634,None,0,,,,,,,,,,,,,,,9,001,2026-04-10_15h17.45.375,0back,,2025.1.1,60.24833157201229,2026-04-10 15h17.54.430402 +0200,
1,1,0,M,M,return,1.4397439000022132,None,space,1,0.7966086000087671,0.12759589999041054,,,,,,1,0,1,0,0,1,1,0,0,1,1,4,283.4690797999938,,,,,,,,,,,,,,283.4525108999951,283.4690797999938,283.4690797999938,283.9846380999952,,284.4680273999984,space,1,0.7966086000087671,0.12759589999041054,,,,,,,,,,,,,9,001,2026-04-10_15h17.45.375,0back,,2025.1.1,60.24833157201229,2026-04-10 15h17.54.430402 +0200,
2,2,0,M,N,return,1.4397439000022132,None,None,0,,,,,,,,1,0,1,0,0,1,1,0,0,2,2,22,284.4845980999962,,,,,,,,,,,,,,284.46943690000626,284.4845980999962,284.4845980999962,284.98456769999757,,285.4681294000038,None,0,,,,,,,,,,,,,,,9,001,2026-04-10_15h17.45.375,0back,,2025.1.1,60.24833157201229,2026-04-10 15h17.54.430402 +0200,
3,3,0,M,R,return,1.4397439000022132,None,None,0,,,,,,,,1,0,1,0,0,1,1,0,0,3,3,12,285.4846358000068,,,,,,,,,,,,,,285.4702427000011,285.4846358000068,285.4846358000068,285.98460510000587,,286.4681700000074,None,0,,,,,,,,,,,,,,,9,001,2026-04-10_15h17.45.375,0back,,2025.1.1,60.24833157201229,2026-04-10 15h17.54.430402 +0200,
4,4,0,M,N,return,1.4397439000022132,None,None,0,,,,,,,,1,0,1,0,0,1,1,0,0,4,4,19,286.4846300000063,,,,,,,,,,,,,,286.46940539999923,286.4846300000063,286.4846300000063,286.98463019999326,,287.46818209999765,None,0,,,,,,,,,,,,,,,9,001,2026-04-10_15h17.45.375,0back,,2025.1.1,60.24833157201229,2026-04-10 15h17.54.430402 +0200,
5,5,0,M,D,return,1.4397439000022132,None,None,0,,,,,,,,1,0,1,0,0,1,1,0,0,5,5,48,287.48460749999504,,,,,,,,,,,,,,287.4695639999991,287.48460749999504,287.48460749999504,287.98453070000687,,288.46806549999746,None,0,,,,,,,,,,,,,,,9,001,2026-04-10_15h17.45.375,0back,,2025.1.1,60.24833157201229,2026-04-10 15h17.54.430402 +0200,
6,6,0,M,I,return,1.4397439000022132,None,None,0,,,,,,,,1,0,1,0,0,1,1,0,0,6,6,44,288.4849130000075,,,,,,,,,,,,,,288.4701992000046,288.4849130000075,288.4849130000075,288.9845942999964,,289.4679510999995,None,0,,,,,,,,,,,,,,,9,001,2026-04-10_15h17.45.375,0back,,2025.1.1,60.24833157201229,2026-04-10 15h17.54.430402 +0200,
7,7,0,M,N,return,1.4397439000022132,None,None,0,,,,,,,,1,0,1,0,0,1,1,0,0,7,7,24,289.48484770000505,,,,,,,,,,,,,,289.46907819999615,289.48484770000505,289.48484770000505,289.9846791000018,,290.46798220000346,None,0,,,,,,,,,,,,,,,9,001,2026-04-10_15h17.45.375,0back,,2025.1.1,60.24833157201229,2026-04-10 15h17.54.430402 +0200,
8,8,0,M,N,return,1.4397439000022132,None,None,0,,,,,,,,1,0,1,0,0,1,1,0,0,8,8,20,290.48461650000536,,,,,,,,,,,,,,290.4681452999939,290.48461650000536,290.48461650000536,290.9845176999952,,291.4682599999942,None,0,,,,,,,,,,,,,,,9,001,2026-04-10_15h17.45.375,0back,,2025.1.1,60.24833157201229,2026-04-10 15h17.54.430402 +0200,
9,9,0,M,M,return,1.4397439000022132,None,space,1,0.5244557999976678,0.11987870000302792,,,,,,1,0,1,0,0,1,1,0,0,9,9,3,291.4849375000049,,,,,,,,,,,,,,291.47013909999805,291.4849375000049,291.4849375000049,291.98460630000045,,292.46810579999874,space,1,0.5244557999976678,0.11987870000302792,,,,,,,,,,,,,9,001,2026-04-10_15h17.45.375,0back,,2025.1.1,60.24833157201229,2026-04-10 15h17.54.430402 +0200,
10,10,0,M,R,return,1.4397439000022132,None,None,0,,,,,,,,1,0,1,0,0,1,1,0,0,10,10,10,292.4846431000042,,,,,,,,,,,,,,292.4693854999932,292.4846431000042,292.4846431000042,292.9846099999995,,293.46801169999526,None,0,,,,,,,,,,,,,,,9,001,2026-04-10_15h17.45.375,0back,,2025.1.1,60.24833157201229,2026-04-10 15h17.54.430402 +0200,
11,11,0,M,N,return,1.4397439000022132,None,None,0,,,,,,,,1,0,1,0,0,1,1,0,0,11,11,28,293.4846294000017,,,,,,,,,,,,,,293.46940309999627,293.4846294000017,293.4846294000017,293.98459520000324,,294.46805520000635,None,0,,,,,,,,,,,,,,,9,001,2026-04-10_15h17.45.375,0back,,2025.1.1,60.24833157201229,2026-04-10 15h17.54.430402 +0200,
12,12,0,M,A,return,1.4397439000022132,None,None,0,,,,,,,,1,0,1,0,0,1,1,0,0,12,12,35,294.48460070000147,,,,,,,,,,,,,,294.4692137999955,294.48460070000147,294.48460070000147,294.98459249999723,,295.4679613000044,None,0,,,,,,,,,,,,,,,9,001,2026-04-10_15h17.45.375,0back,,2025.1.1,60.24833157201229,2026-04-10 15h17.54.430402 +0200,
13,13,0,M,A,return,1.4397439000022132,None,None,0,,,,,,,,1,0,1,0,0,1,1,0,0,13,13,36,295.48480809999455,,,,,,,,,,,,,,295.4680886999995,295.48480809999455,295.48480809999455,295.98466879999614,,296.4679887999955,None,0,,,,,,,,,,,,,,,9,001,2026-04-10_15h17.45.375,0back,,2025.1.1,60.24833157201229,2026-04-10 15h17.54.430402 +0200,
14,14,0,M,A,return,1.4397439000022132,None,None,0,,,,,,,,1,0,1,0,0,1,1,0,0,14,14,31,296.48464710000553,,,,,,,,,,,,,,296.4681186999951,296.48464710000553,296.48464710000553,296.9846716000029,,297.4682024000067,None,0,,,,,,,,,,,,,,,9,001,2026-04-10_15h17.45.375,0back,,2025.1.1,60.24833157201229,2026-04-10 15h17.54.430402 +0200,
15,15,0,M,M,return,1.4397439000022132,None,space,1,0.519075200005318,0.1106249000004027,,,,,,1,0,1,0,0,1,1,0,0,15,15,2,297.484595899994,,,,,,,,,,,,,,297.4704706000048,297.484595899994,297.484595899994,297.9846172999969,,298.468037300001,space,1,0.519075200005318,0.1106249000004027,,,,,,,,,,,,,9,001,2026-04-10_15h17.45.375,0back,,2025.1.1,60.24833157201229,2026-04-10 15h17.54.430402 +0200,
16,16,0,M,M,return,1.4397439000022132,None,space,1,0.46165290000499226,0.11998459999449551,,,,,,1,0,1,0,0,1,1,0,0,16,16,1,298.4846522000007,,,,,,,,,,,,,,298.4687937999988,298.4846522000007,298.4846522000007,298.9845636999962,,299.4680987000029,space,1,0.46165290000499226,0.11998459999449551,,,,,,,,,,,,,9,001,2026-04-10_15h17.45.375,0back,,2025.1.1,60.24833157201229,2026-04-10 15h17.54.430402 +0200,
17,17,0,M,R,return,1.4397439000022132,None,None,0,,,,,,,,1,0,1,0,0,1,1,0,0,17,17,16,299.48453580000205,,,,,,,,,,,,,,299.46946550000575,299.48453580000205,299.48453580000205,299.9845529000013,,300.46800110000186,None,0,,,,,,,,,,,,,,,9,001,2026-04-10_15h17.45.375,0back,,2025.1.1,60.24833157201229,2026-04-10 15h17.54.430402 +0200,
18,18,0,M,P,return,1.4397439000022132,None,None,0,,,,,,,,1,0,1,0,0,1,1,0,0,18,18,46,300.4845475000038,,,,,,,,,,,,,,300.46912530000554,300.4845475000038,300.4845475000038,300.98493659999804,,301.46803990000626,None,0,,,,,,,,,,,,,,,9,001,2026-04-10_15h17.45.375,0back,,2025.1.1,60.24833157201229,2026-04-10 15h17.54.430402 +0200,
